ts,ax,ay,az,gx,gy,gz
1776353553980,-1.755249621825013,-0.9572317512512206,-9.022698593902588,1.3170582272992715,-20.157126212494692,-137.92758334443022
1776353553997,-1.2693762128191999,-0.9739905783504247,-9.00204802006185,-4.735469189312806,-24.382960836886998,-140.7867551725109
1776353554013,-0.8794206356875598,-0.9638155135557055,-9.726893157196045,1.516620666756294,-28.282869079370048,-141.0227928498482
1776353554030,-0.7571667773479129,-0.9666586280271411,-10.162488221740722,21.587707626606573,-28.632972623393854,-140.72461411144212
1776353554047,-0.47539917860142883,-0.9412205276489257,-10.129867224121092,45.53152998854406,-38.020558788483214,-138.86808673276263
1776353554063,-0.33414122585328293,-1.2211921920225024,-9.797970434460042,59.84988777207357,-44.14030924707167,-133.78342070703835
1776353554079,-0.5089179744441528,-1.2566563041135668,-8.99591346282959,55.286020255468166,-55.56222627531431,-126.16640740501846
1776353554096,-0.34775832086065783,-1.581370196533203,-8.007407452392577,34.24685195129449,-80.15720130668038,-119.69231697757348
1776353554113,-1.069161226852797,-2.120364845275879,-8.81679725112915,31.296968380846852,-81.39800079206158,-128.21109283495346
1776353554130,-0.7715320329746231,-2.3579890677854416,-9.10380159061849,36.762916056608766,-96.73187110138858,-131.25185207230814
1776353554147,-0.061501603134535246,-2.076820302581787,-10.469095671844482,60.472500496055254,-119.60878376402424,-123.09734386374326
1776353554163,-0.4405336899906397,-0.4529533188417554,-9.300126711273192,60.66424439662502,-142.04993035761308,-114.57907344036187
1776353554180,-0.5636854378849268,-0.3497033722475171,-8.45228004837036,55.12522735712231,-154.4507808335532,-118.536676290764
1776353554196,-0.35913083354532715,-4.082263468170166,-7.672069582366943,46.13142891844087,-194.76987927775872,-131.7427650887136
1776353554213,-0.833332253729552,-5.3658548332214355,-7.9087956869930025,37.99108652221461,-225.81356716870857,-136.56692769949362
1776353554230,-1.3250415658146142,-4.980239020593464,-8.352771041870117,30.077960614012582,-247.02034831511435,-131.46715329532526
1776353554247,-2.0494372056156394,-4.5139679550170895,-9.388562535095215,5.9401250211535865,-293.8244654894369,-124.1821554888597
1776353554263,-2.6687869553163646,-4.065055143737792,-10.921000650677085,-13.42080603979272,-267.2942622246798,-104.61898423413662
1776353554280,-3.222297036145627,-3.5697549675539135,-11.523142368206381,-34.80698551984348,-197.02774857206816,-80.96784230832334
1776353554297,-4.421492792676389,-2.704251067407429,-10.408492442321776,-64.29705126142555,-145.11964959704858,-57.438318730871316
1776353554313,-3.8830966943487524,-2.401085282190144,-8.876353017425537,-61.464687925837154,-145.86140814091195,-48.382300683945644
1776353554330,-2.9469635529667135,-3.211821819360554,-8.58725258243978,-20.270299031947218,-159.79611419876184,-64.42401081771774
1776353554346,-1.9882354256778954,-3.159598295648396,-7.500883579143881,12.469628773334867,-167.17408454020963,-60.91932464136832
1776353554363,0.062248366381227965,-1.2488757332399487,-5.4131397314876315,10.655358921276584,-167.74855809092105,-25.88441400137422
1776353554380,0.3425204750061035,-1.692401298522949,-4.804862872204184,10.847950619077078,-168.52169452383148,-5.387263042749721
1776353554397,0.1746259145438671,-1.7654247414186597,-3.0056203245967623,0.359204824453701,-185.68473047402293,18.395475284028542
1776353554413,-1.274912384033203,-1.975366007232666,-1.427242295616865,-25.505128474121534,-188.96666369097073,32.27883197969828
1776353554430,-2.591274968829751,-2.0923829056337473,-0.9331389280021191,-76.80174793350656,-154.97487490894662,32.753188617555665
1776353554447,-4.21963137294352,-1.5280995018556713,-1.5472522383540868,-135.0627014782034,-104.47547512948547,33.323355733995406
1776353554463,-3.002329466357827,0.5771519454404711,-3.3044466193050144,-144.19210990776085,-122.40192132320925,52.80470815265091
1776353554480,-3.015048662677407,-0.3859156723573804,-5.486911070141196,-108.46018700070341,-145.6672941647002,59.555656883007764
1776353554497,-1.3702315376281737,1.0538976432800293,-6.024558395928144,-47.97393050365975,-186.88437123946562,95.25089484403306
1776353554513,-1.2802993377685545,1.8478750610902905,-3.394378234642744,-25.575643347112745,-202.73707637852513,118.5534648957439
1776353554530,-1.1896195344120264,1.8453306373044847,-2.206106607708335,-27.31830464213897,-228.06695585892248,138.87561360122797
1776353554547,-2.0636521934509275,2.6364650867737827,0.34910569861531254,-40.65454952491235,-249.3831019943185,157.9772894643008
1776353554563,-2.4114105691105125,3.5212720916748044,-0.6498755286067723,-42.72167212627085,-253.86337824076674,172.35646325220011
1776353554580,-2.4218846168518064,4.5736730666562915,-0.7493839505851269,-45.918122110661365,-248.84712338976928,194.84525724543897
1776353554597,-2.3535019854992627,7.2702924701414995,-0.6115680097833276,-53.429031839019686,-236.25539644728397,231.78140397487218
1776353554613,-3.2044898690372703,9.86859962089667,-0.9911987566523254,-54.28338605135073,-213.19543471489197,261.82489262414373
1776353554630,-4.110695197406411,11.295245174463092,-1.0877148649469017,-56.092334332271925,-185.97636589120413,287.53629281119964
1776353554647,-6.024411680933833,14.115614730127154,-0.6323673809776083,-67.44439560077826,-145.352518066611,315.3395886957337
1776353554663,-8.024317086139321,16.883760469818114,-1.255159252222534,-75.59564580910903,-102.71355270099983,332.3820035051827
1776353554680,-9.087942342707514,18.22301673120707,-2.0841519058451987,-76.41408005659497,-58.3877355160706,346.54093101310576
1776353554697,-10.711807865142822,21.031115418840944,-3.00217803865578,-80.51641461550969,7.260878700958952,363.71596077547974
1776353554713,-12.186486450195313,23.381623775482176,-3.0927088985282927,-96.04060131586994,51.31135900761391,373.27655904734013
1776353554730,-12.977920321002602,24.31850481262207,-3.3629548493098467,-118.10115610852732,88.35045034821756,376.68203672599515
1776353554747,-14.23682089691162,25.21767775813639,-4.611380537227355,-140.37240857670125,114.10782453857684,370.89703042353443
1776353554763,-15.448735849761961,25.43929046478271,-5.863249095607735,-147.88471507874485,119.13781489999518,357.00855108598716
1776353554780,-16.25258964168131,25.770736588066814,-6.361093366783857,-146.73285831673556,117.89239820673505,337.8252544623327
1776353554797,-15.984289710400997,24.95566289847493,-7.55654825628586,-129.17750996099693,111.40495475946271,318.20034512770184
1776353554813,-14.67735400238037,21.196765122985838,-8.274359476195276,-104.66831869051163,106.44366927090553,304.93789360872125
1776353554830,-14.366557283893227,16.70075251137614,-7.888294969951733,-74.39753500604041,112.64711345248874,276.3252203075407
1776353554847,-14.86275499343872,14.558991826850175,-7.436390064184367,-56.70073001749623,125.39109897195196,235.2390096572727
1776353554863,-15.83300521621704,10.57204692775309,-5.567116825756431,-46.4420761671768,142.80483018543956,175.0453994454074
1776353554880,-15.15125702413991,8.98259630061686,-2.7281913304433223,-57.15897423910155,159.77047366861763,99.51962647150764
1776353554897,-14.460380207581073,8.881741724726558,-1.552040203282982,-80.6767396458974,173.9633881978507,65.18818604243711
1776353554913,-13.578715446228534,8.781333139038086,-0.5065215351611375,-106.5106392757175,179.50192029392232,39.70172789041181
1776353554930,-13.315353409741817,8.180687797546387,-1.88199141183421,-119.76861019060253,150.68242886467377,3.404863815403343
1776353554947,-13.133992195593565,7.856123250469565,-2.929155070684105,-112.73120674154993,119.2508272100022,-25.066754980359068
1776353554963,-13.168707973535358,6.8227271279484025,-4.616468252287805,-99.19457093871755,97.40825107451661,-52.700148201741776
1776353554980,-13.285725164197384,5.3033068993717425,-4.499302885326743,-93.42432467505323,103.0455545361758,-83.13005480330678
1776353554997,-12.987197852435708,4.760572479578852,-4.04470296832174,-105.43466591538706,127.04168248677725,-91.77178772612532
1776353555013,-12.425159012714028,3.743784377509355,-4.220976357811689,-116.34608435977918,149.0890550143365,-95.27988899705976
1776353555030,-12.372037955640256,2.1627128716617823,-5.1583057232409715,-115.77697933775538,155.2690648168774,-109.13888240796007
1776353555047,-12.778752670398354,1.6808780339896678,-5.995827976006269,-101.13749338020855,162.03007783097627,-123.06509171048246
1776353555063,-13.16137573095113,0.799513132366538,-6.40688276579529,-82.99972113356459,168.44164470675895,-129.80234932664803
1776353555080,-12.10209113393575,0.14245382973551748,-5.303903988482058,-65.59021780717323,198.31926904222587,-112.97611683461908
1776353555109,-12.333580214691162,-1.5216653771549462,-4.118774751226604,-64.29513880845795,194.95355672491868,-118.91192688376451
1776353555112,-12.153417124286293,-2.1962316949039695,-4.5166605551019305,-61.72995881282211,189.86569417066283,-120.83346400296419
1776353555130,-11.575965611377358,-3.397821068572998,-5.646574101091921,-38.39633530604981,176.1333939386771,-118.4832915322112
1776353555147,-11.420940469360351,-4.019865171924233,-5.94031330179423,-11.259200577871779,173.92268027039742,-116.55642686545889
1776353555162,-11.824963168555497,-4.085404688805341,-7.303511433654278,17.446396593193175,160.06320191606602,-117.5856953922448
1776353555180,-12.598438773345947,-3.9652474465519187,-9.761608350615948,65.7612389138012,146.80882368068444,-116.26051574985726
1776353555197,-14.074614318957924,-3.464110527038574,-10.348038704272359,107.92615500006762,150.91160903208436,-118.9352314892126
1776353555213,-18.044798637390137,-0.6932716027408838,-9.88565763187185,155.75213677611572,143.24029572616288,-118.80008936629473
1776353555230,-21.065833973261714,1.5686515847355127,-9.43195716619091,229.65281650117274,98.27021411758305,-127.25780333249479
1776353555247,-22.468986368238923,2.3597850112915038,-9.006686785778403,274.55707557672116,53.55280511206407,-159.7387269493554
1776353555264,-25.472808703503013,5.9184653348624705,-6.718129566137493,295.953080283893,12.289074430172873,-194.40177306263004
1776353555280,-29.20806432211995,11.407622430364787,-5.928641422570497,319.08113900231,-59.269478786973394,-225.164685537179
1776353555297,-31.74247466343343,14.308945929662883,-5.9136776621945195,346.1254642662722,-121.66860489316,-247.7277919885876
1776353555313,-35.03570080054402,18.543391133117673,-4.041411963952332,355.89829017602324,-171.37805231397414,-280.4774289077748
1776353555330,-33.36679377485513,21.63116308670044,-0.7811075609736144,319.1875260288221,-201.38744465890895,-321.36009992077646
1776353555347,-30.29353549979329,22.267870213915405,0.4825818566471338,258.81772425712717,-178.74139239021974,-329.39748404545395
1776353555364,-22.49217844325602,21.7327677868383,1.7862248067326842,183.5972743995053,-122.00667193631895,-313.8198169638925
1776353555380,-14.111875251337885,19.983502774114534,-0.17073593963431194,117.77244642453128,-38.718330914091716,-265.56472172304916
1776353555397,-10.390687321040033,18.606985361149906,-1.0287574664024635,105.04528366099379,-5.994130900034055,-229.10399714098386
1776353555413,-4.622606608912348,15.998353745458274,-2.637362158911093,126.18794982166068,-22.61650828543433,-197.0604924989492
1776353555430,-0.20694880599975585,14.008323106926678,-1.7863729464991016,162.92241472528175,-106.1739519307709,-168.65406358994633
1776353555447,1.8384458462268114,13.43281688286662,-0.7951737879879772,163.66876315626737,-156.87578485685287,-150.25297389042004
1776353555463,5.934777002716064,12.57733987121582,0.7285859310977161,116.60157441587268,-140.32110019565613,-108.27676910073188
1776353555480,9.096320879474282,11.998691841998696,-0.45310164127126334,76.33043072982983,-64.6374200783348,-72.40447214585235
1776353555497,10.867432142096757,11.750741163524985,-0.6676819650627672,48.63744581548605,-2.298579356196847,-39.46577559043914
1776353555513,14.922311344256997,12.423661175371706,-0.698207890099287,45.03888893427855,-20.868978773077178,20.557248939357795
1776353555530,16.34925378014445,14.134317969292402,-2.2008691454462705,63.00733396120872,-60.50322951713114,70.7099910052314
1776353555547,15.929074311396478,14.957176321411131,-2.9897588847286998,79.82505603753184,-57.410007596761616,114.55714170293695
1776353555563,15.849165492901205,17.144429175567627,-2.3657696386590596,69.6549590048962,9.482956096470248,182.03754606101953
1776353555580,15.829713773456215,20.737827030646056,-0.4433754892878234,40.56955806597529,74.98999244483649,246.72981938857868
1776353555597,14.630368963843583,22.473623672650753,0.233734667725116,6.341554448582277,126.92656647850585,308.1494212357046
1776353555613,10.450241333770752,25.210195439556983,1.232117052271217,-38.91206239970996,157.39933251711267,376.85923915382193
1776353555629,4.82057482059896,29.79389444486089,1.1058230608284472,-69.08272575623253,170.27234030999745,427.7369357906534
1776353555647,1.5813684429675339,32.76629675579294,1.2083244540777056,-112.43195566344417,169.8686761300497,471.2675345410855
1776353555663,-6.878241509899497,38.42603940440714,1.761983807184547,-192.5276920977836,155.2479731927204,505.0798122913434
1776353555680,-18.32177842647135,42.549004300799965,-4.103810095801483,-217.19735183262918,147.73614480391873,491.2150746913511
1776353555697,-22.81674357485473,43.73353615668416,-8.523805800054221,-185.22968961113833,132.012953711901,466.20122806385024
1776353555713,-28.490402374488113,48.13108430241048,-14.057255260943249,-123.01191185760474,119.05746455459914,478.08903571047404
1776353555730,-36.90542149047852,47.16172898264527,-15.78721596333608,-70.17924432558638,82.45689867946699,492.7614841609554
1776353555747,-43.37410604793131,43.2320993774414,-17.08577097916547,-4.469428198498932,69.05214016912922,459.84357870137563
1776353555763,-51.33198491478413,27.77169179458618,-9.202861054119793,-57.21968437553921,140.84391019548556,311.22994583440703
1776353555780,-45.2293151051715,17.604715613776445,-5.373484926241077,-140.1423951262119,214.98113303187847,210.46655557541845
1776353555797,-39.79028456110209,15.645958211517334,-7.750479211813024,-174.62501496237147,248.08170507062098,162.08689134449244
1776353555813,-29.62450416594818,11.296292345428466,-11.366022738128155,-160.61932957866682,202.78588491033406,152.71464236918433
1776353555830,-26.5985325427182,3.507356379047036,-13.3090676074706,-127.24221684080882,142.71071017867678,126.12229804335851
1776353555847,-26.086174994879958,-0.14769231491088866,-12.93123192732483,-108.92453058123756,126.03574588619611,78.24016528214374
1776353555863,-22.24123603562042,-4.862922846984863,-11.202918188421428,-107.7591363842933,167.05420105989757,35.150793336999826
1776353555880,-16.296583097186684,-8.381652268439531,-9.758615160149334,-98.97424269647128,193.89434464881145,27.65877249679118
1776353555897,-14.90225946696177,-10.633696451458334,-8.81110926862061,-83.2295843198922,180.9081059798662,10.71257968482201
1776353555913,-14.454992961584775,-15.465046348571777,-6.391470384868979,-69.11219802250115,143.23492719747526,-29.498845949760124
1776353555930,-15.745916861481218,-18.525434036144613,-6.354509896740317,-53.24600325983085,134.9329552047298,-67.5116934546704
1776353555947,-13.90312947891876,-18.370857806938886,-5.82090264012441,-45.69060167921907,144.1835311901633,-89.63787270487326
1776353555963,-15.729008250647782,-18.104952954101563,-6.691642833489179,-12.240935256902622,158.96733904487252,-131.71103202982974
1776353555980,-17.56446251384318,-15.180733147862552,-4.931157302038371,-1.027251486546632,169.01666467260398,-164.86005743054432
1776353555997,-17.886482052612305,-12.886939488872885,-3.841196557860821,-13.733744816995195,192.00966323037315,-195.95585966486138
1776353556013,-16.596306632995603,-7.2723875427246085,-5.581033707427978,-4.509606359404708,219.40409033081193,-206.70115424826045
1776353556030,-17.27670940181315,-1.7922095802307128,-9.86515881452672,51.06821110335063,230.1235804595267,-203.2402290939233
1776353556047,-19.700389669910074,0.5981015022277831,-8.923339298071339,111.51103442746218,213.66557029584231,-208.4510077324827
1776353556063,-25.207203710395095,6.625205490985512,-3.7430348697497275,150.001800513882,153.9501826089046,-232.79546850056565
1776353556080,-30.38242140547037,12.20683716430664,-1.4456485976621507,169.8756702437598,82.42911346992338,-255.93929129558705
1776353556097,-32.66125130408406,15.104419723510741,-2.095225362518057,199.04531815099824,6.72454065770464,-280.35516852163164
1776353556113,-39.50387731072306,23.47514552426636,-1.9759642653867602,224.9381964643014,-77.13589444808193,-324.3627057214274
1776353556130,-45.0367277097404,31.873855310490725,0.3522473576419055,216.35659652693562,-133.15563069966578,-363.24363953399506
1776353556147,-45.97705216533243,35.17216824934631,0.9305971345648169,187.02902098570814,-167.7203084285139,-395.0982757851005
1776353556163,-44.31233323898315,38.158335977715254,0.05626454273127019,138.2827258605142,-119.67606112734886,-421.4509487729506
1776353556180,-38.645406377953286,37.273529995727536,0.6028905631352216,99.3061215882422,-27.464397265843665,-425.52537517891665
1776353556197,-34.03043537848592,35.95836553467437,1.035342872674763,79.50398250502788,54.572552355146975,-409.00735497318453
1776353556213,-23.855374675419924,30.965855207659303,2.022951642011106,89.69562195430572,89.17821463410974,-376.7190836720533
1776353556230,-14.334234976959229,25.48762355692759,3.436577792468667,112.50611785745217,52.30921207931234,-345.51481803371644
1776353556247,-9.968408834186196,22.810006375554202,4.149002131707966,134.44813471706397,-28.811042485245256,-305.8206818985671
1776353556263,-3.469048567962646,18.17288871846944,4.474164790808409,151.9977047327648,-148.27385827651713,-255.79782441749774
1776353556280,1.333419518059492,14.945053921940922,4.249109798221103,137.91975594764136,-183.31912177574569,-219.8041071897429
1776353556297,4.242823447960615,13.301584412108362,3.581875814387854,81.7137536072021,-114.85715776222976,-192.6025373107086
1776353556313,6.438755283135175,13.062015485271811,3.4382235138490795,29.359762807691155,-32.5579818110767,-180.56140557759636
1776353556330,12.882600582885742,14.191481287494302,4.166510352402367,-16.746846910853176,-3.830665065337931,-162.73142897570986
1776353556347,21.110573278698325,15.687108552551269,2.706645817056857,-46.6142481606799,-81.25451217797794,-99.26255864171586
1776353556363,23.37354451392293,16.45893872822225,0.2295444494936615,-36.40673193667636,-133.1504807370316,-30.13487999546088
1776353556380,23.605184109064936,16.672323704749346,-3.47623088068217,-21.34117877870413,-119.1484016932087,33.1925268755384
1776353556396,23.53904428820312,16.686986436352132,-2.9881129441525784,-36.92836372887398,-56.91477448570609,98.60977014198106
1776353556413,21.959618211475014,17.419014762988684,-1.0402799637507647,-75.55228776825778,19.397786761707696,183.04154288787637
1776353556430,18.885912777167558,18.082357675933835,-0.4673175789546221,-91.22792708327388,19.6283568726144,239.78873526720162
1776353556447,13.7906015625,19.550751773889363,-0.8047507407590746,-91.40178271840739,-32.14299317748507,303.3182371904578
1776353556463,10.902745447540283,19.942351337102053,-1.2906240401670337,-84.17279929332511,-48.91669468460744,335.1199258151173
1776353556480,6.190508836585283,21.035006581060586,-0.4665692448053509,-93.63334212403396,-25.05400813982053,363.11301899630774
1776353556497,2.7883453548938033,24.898798563219607,1.7788924180179833,-153.79075233329817,22.102881474943953,413.6833571204886
1776353556513,-0.7140712296634912,27.643452075903117,1.3854957057228312,-210.4532640272936,57.75763007456941,443.9078184620088
1776353556530,-10.603021327209472,32.83437894289419,-2.3192322342919183,-254.64273014582187,83.68862767363042,445.9118506060039
1776353556547,-20.21229991237223,38.724117511096594,-11.16191788685005,-223.18353452690346,80.82757754352797,437.18188529948713
1776353556563,-24.076989720153808,42.73410338630229,-14.07925164620264,-182.9658234107376,101.62676715121324,467.7880176118276
1776353556580,-31.623665913179515,48.14440380271077,-11.656469555354724,-191.17758226492552,147.21277472857733,526.8301398918987
1776353556596,-40.32374349528849,50.828155395185945,-11.520898772264365,-244.12221708800791,244.28554057144123,544.3738359449134
1776353556613,-45.55013841989338,49.969831177410484,-15.3849906324191,-178.75023065500574,170.51217557251329,516.0415555695402
1776353556630,-54.199636153844,38.88437763115763,-20.875791111214273,-46.21437132062692,35.49977843754704,443.81585679502376
1776353556647,-52.33410531681478,24.6070061126709,-12.025775663757324,-46.15974346764516,45.5430695931468,327.2222053985883
1776353556663,-49.07963678038269,18.543540770721435,-11.337891444010054,-93.44708286536772,150.0055297971688,234.2901051362612
1776353556680,-37.08438923361897,10.219949646106361,-14.471751286360481,-91.89899999941682,211.71885709936194,167.463315730803
1776353556697,-25.026441192792355,4.415955909076333,-11.80640726543907,-69.633095569363,200.82997827923086,145.62687310519206
1776353556713,-22.708853985761106,0.7047936982303857,-10.152910620515653,-53.25123518473508,161.60351885693063,125.41262772821585
1776353556730,-19.31776573257446,-5.86145399235189,-7.50881527175887,-50.217531532793046,131.62427496699223,100.3555255127013
1776353556747,-16.675914861109106,-10.618133556145429,-6.825269989964784,-51.884285520478336,133.6591795660358,71.74200526806364
1776353556763,-15.602114832007139,-12.518980036705731,-6.4366621033983416,-50.629156298218454,149.6705773202714,54.710040648044746
1776353556780,-14.295479129846393,-15.11130305328369,-5.140799813234666,-45.26270057300153,158.0528450168995,37.60023919224439
1776353556797,-14.58622514008209,-15.91650358363688,-3.0909141788649372,-43.052973867056906,173.3592716261414,8.30508741278061
1776353556813,-15.00730462640971,-15.725564832195639,-1.8656819724703206,-55.88203963791641,189.08482596361196,-18.118162773536852
1776353556830,-15.576825930841267,-14.092570246887206,-0.27383708887500685,-81.04612993659003,207.97252566036664,-46.54218966493626
1776353556847,-15.445594190735369,-10.876557113316654,-1.8975540148861705,-99.528560358942,236.2460527484994,-79.07758062533314
1776353556863,-15.181333159582316,-9.153184337946772,-3.3101339076938108,-81.94609615219842,254.9797316794703,-96.22459295173174
1776353556880,-14.767885629437863,-6.566845656475424,-4.1587284298218785,-52.46494039238863,276.20189441188694,-110.763579505831
1776353556897,-13.751396218053996,-4.580855963897704,-1.5816699283984488,-31.282351776023024,307.03246674035404,-145.2379484734732
1776353556913,-12.715605601611733,-2.6409540687561033,-0.2593224422397092,-23.57946079802128,301.21789937916554,-170.51279028953857
1776353556930,-12.29273061016947,4.8142923793286085,-1.753154202182032,71.11078650572775,224.79323252935703,-124.62279831297391
1776353556947,-23.48053540061116,11.2811807010144,0.4400844118531793,151.37315223505882,122.79106452098155,-87.34635106852315
1776353556962,-34.1323365408197,13.65009185256958,4.674080044909567,149.3501731463061,-13.031133502359737,-138.27410616178165
1776353556980,-52.705656655994055,17.949031155505775,6.645705112048238,67.63816123734235,-103.69619835651122,-323.3021685886212
1776353556997,-57.056218594139814,28.68523053458333,-0.734720926721394,24.143163140411605,-12.401554839198289,-457.0223280835669
1776353557013,-53.35433625281453,35.48266656940877,-4.720019373785704,63.307739341284226,74.42544315898908,-503.5002900646429
1776353557030,-46.147636695531006,43.34432699573934,-7.480683379419148,201.95051179370648,25.686480241869127,-496.2176145224952
1776353557047,-42.66661828831136,42.59314768617004,-1.152060057476908,263.68535419178517,-84.38646810113062,-507.7310731610889
1776353557063,-38.819885577502845,40.854058578491205,2.483984076281637,255.53994379519474,-156.95643573057237,-516.1020437248299
1776353557080,-27.41286140529215,36.25928646357432,7.0540661327086385,168.39428417505405,-148.6357763402578,-487.1890333454654
1776353557097,-16.99553975982666,30.316428299602865,7.769034457342326,84.54990769777986,-89.48367435417106,-442.4373606959751
1776353557113,-13.388226630511879,27.294047540471702,7.09790995061025,18.524185076295556,-34.91034677255328,-397.53206343167284
1776353557130,-7.334787008014321,22.09833139337748,4.2179850670412184,-20.56179613779773,-27.84491051959966,-347.53319357496855
1776353557147,-0.9337398165047168,19.291729081781206,0.7597096758969127,-15.020000918850117,-61.663173223117724,-305.7260427974274
1776353557163,2.8565818557739258,18.52917439171672,-0.9243113322935997,13.248699786860385,-125.97476595728624,-253.84007363531865
1776353557180,7.952190007561445,17.063475816455483,-2.525134380782954,29.092576052644013,-153.40145887136413,-205.61254503796548
1776353557197,13.475613822063803,16.155623889923096,-0.9088986956389621,-0.7769760664410283,-98.27963977863766,-164.481077554257
1776353557213,16.955138775855303,15.69264455936849,-0.06883307853378355,-37.65768108316419,-45.18710403926783,-121.13281753390751
1776353557230,25.76115861238241,16.36406848743856,0.036661071357247416,-44.91955869928926,-67.87281238627814,-44.43038396602753
1776353557247,34.42951594510376,18.888754722595213,-1.05030653258604,-24.158005141478043,-112.64907371678053,46.23432230319252
1776353557263,37.092915654423834,20.915447596961258,-2.042703148120269,12.848783673219675,-117.34064186520308,166.74334549039196
1776353557280,36.19763620921671,25.102606148584186,-4.032434146118164,68.5429427363156,-96.02831380555308,343.67998333584086
1776353557297,26.518177587890623,26.629507380566,-0.41374724374338984,69.81546162020234,-93.73636869747443,431.90876069418385
1776353557313,20.35221048736572,26.899305733710527,0.9446619002744555,34.052700409042295,-72.71883843259135,467.41541713222506
1776353557330,12.836809138047695,28.86853601466715,-0.966958049365133,-10.532167068085295,-18.094900856771083,505.55043964591397
1776353557347,9.061155458068846,33.38010918350219,-5.450699500683695,-22.145051062879613,34.04464761601085,561.3245076534308
1776353557363,6.906224910846352,35.760843313189596,-7.9906484791629016,-20.972104384260614,79.63426153325669,615.3850724434882
1776353557380,-1.8379998560249804,40.11380281399637,-8.687959055096282,-48.57228581080413,101.90444166173094,631.0319430017202
1776353557397,-16.62952676555216,43.163863461083174,-9.313744098541513,-90.19347444290794,129.8008057038956,581.4655334025044
1776353557413,-22.13424471054077,45.78222283619344,-10.785429200866446,-142.76062520113123,190.34170371429937,515.5440445903964
1776353557430,-25.022101410022376,59.67757364393472,-20.74665411489792,-107.94868779413949,329.3042656236616,574.1563567263771
1776353557447,-30.21123481772542,71.51016365410685,-27.076923706209843,-47.4723692223382,375.36643300882395,660.2714364234112
1776353557463,-37.40116999495178,71.03417052820026,-23.567023634029365,-16.5050411387618,304.9074856065364,653.8428623765952
1776353557480,-45.74421503096893,58.311980287501214,-20.538208932860567,27.701526065900875,250.81132187052486,536.0098594948826
1776353557497,-42.58970494357133,40.71728980865478,-12.173767400006204,-19.305872906046833,322.06158766929343,426.0724186899213
1776353557513,-38.7856154244367,32.86954743303954,-8.598475804580561,-117.93663051180005,434.16378862979855,327.3885614860131
1776353557530,-32.107590270476784,22.96368711722493,-8.146121182284318,-216.03548201329664,533.0764298501455,210.00154263634565
1776353557547,-25.734975246594846,17.34599044331014,-9.214684004852547,-243.2012070595667,495.01112990750414,146.68541582276063
1776353557563,-22.430377674511817,14.553155375781655,-10.538825918413698,-209.16924310484458,350.65688496922553,103.92399199552031
1776353557580,-18.433706185039878,9.311649391284584,-12.909983679851889,-115.15379287788342,137.96699353594119,66.91224190216423
1776353557597,-17.37097977700755,4.342781951794028,-11.408669893591105,-74.78009390145283,77.94398778916447,48.20147484076414
1776353557613,-17.163282929119468,1.8899235200077293,-9.996689756774902,-77.52020870211103,115.90985383786881,30.539275005649827
1776353557630,-16.560992450769245,-2.3608330590397117,-8.8328081824705,-103.40149618439267,197.9719129417957,4.69209279232817
1776353557647,-14.901211857604979,-5.858311602672934,-10.386345492443441,-91.36653894229013,180.7283490612898,-15.97975178026363
1776353557663,-14.44975418414846,-6.683562402886152,-11.751937387572228,-39.36812096078088,102.36600535527289,-29.556824010529777
1776353557680,-14.90884235248342,-7.647677483910321,-12.245144098608195,27.033728225464973,21.658210546766735,-43.807685864681225
1776353557696,-17.440411186760663,-8.525152392357587,-9.749787126049398,37.862112060117255,12.92804631099038,-67.0913636131478
1776353557713,-18.971353145500643,-8.073696910858153,-8.986040011329948,25.06721260303346,59.93392641962141,-110.71976384230537
1776353557730,-18.880523266148938,-7.292140290942788,-9.415945047539472,20.35024127354034,113.98820060545323,-143.38595634040257
1776353557747,-18.177825827811752,-5.005076816990972,-9.876081263622641,25.827472421811116,160.5963255015422,-171.30871223352017
1776353557763,-17.306785902581737,-1.8445827415466307,-9.232938258141278,55.248092215007084,189.29604273350543,-196.33283146553273
1776353557780,-17.124227076146752,-0.05551672003865242,-8.576030638940631,88.2020918092557,204.49673801439553,-208.67865793751923
1776353557797,-18.411559673552958,4.566193232294917,-4.696376194000244,106.00513014505569,217.47655630552094,-219.1066492528362
1776353557813,-20.34772135925293,10.516381154632567,-0.7861959701538086,104.77160481114055,238.06599763398432,-199.2964232256446
1776353557830,-22.538863622063396,12.946196564483643,0.1306343587346375,98.43290922361275,276.9226159731067,-174.32557946915813
1776353557847,-31.414918533325192,17.226132476264237,-1.1725592401482163,119.74355705672693,286.92190363497866,-170.44339556757126
1776353557863,-46.56767207963318,24.262840793067216,-4.012381611235812,230.66718155518967,193.61386976073405,-245.0736624393907
1776353557880,-54.431874299401045,30.01805325579345,-4.14660736379223,334.6426595166735,92.11099541087567,-374.84777576400984
1776353557897,-60.901159160834546,46.14659098587036,0.17253237633071838,386.42030187854584,-45.726070851578946,-516.0495332304907
1776353557913,-54.858042194908855,63.53881944874227,0.8822636040285229,385.2108393010767,-168.70707951828396,-591.1069191518677
1776353557930,-49.736847181922194,65.69509702665954,-0.6260832957394421,387.85682726478296,-196.22925847695865,-607.6324252449302
1776353557947,-35.53174945700764,58.72991665349751,1.0205287499025464,360.47842378813704,-202.56036572431856,-596.6093741887433
1776353557963,-23.028778305816648,47.690849595366416,4.630236884595081,249.30228719605893,-120.62752013910998,-530.103931523356
1776353557980,-19.072211593848465,42.344746852776034,5.152172627313435,159.2569937071944,12.923273716307834,-471.1948613283166
1776353557997,-12.031162617492676,33.55533496363535,4.707150759058073,105.67013668702324,116.2360226914936,-419.0144290507103
1776353558013,-3.675100132861733,26.796803682874142,3.039588937433064,112.62852167756796,62.68762646653877,-353.1505323936838
1776353558030,0.149786072319746,24.844332229016718,2.0395606123108414,154.20090519295746,-68.05514428617163,-304.58296965869073
1776353558047,6.131998195427656,21.986852547620234,1.1417353550784288,175.19253538050785,-177.61233479965995,-254.0574648962218
1776353558063,9.075519498986004,19.743485299792884,2.8033105491750407,109.26869698332533,-133.15172383146054,-222.5922587108338
1776353558080,11.865962702941895,18.665944330596922,4.302081254223734,15.596393752718324,-26.533200010255392,-229.8321226272639
1776353558097,22.852353817418216,19.730615296825764,3.7714667862156404,-48.256877920216695,31.616153366045303,-199.5671172828305
1776353558113,33.136046744638676,21.46446562706828,-0.4433758180813864,-34.44057660672356,-3.6701061009711484,-83.26738941694822
1776353558130,35.75979365800619,21.732019416156408,-1.21685229965467,9.977080155559298,-66.58577252021595,33.5091710303656
1776353558147,35.69619884545207,20.821324375152585,0.9581303805913776,28.972125666630838,-106.83936945028104,134.38543358048327
1776353558163,29.99246230294108,21.33757410812378,2.458396849756315,6.597623790094755,-90.8748131333734,242.7963954078384
1776353558180,26.15006732907593,22.117185439190266,1.8833397577032445,-5.371991593539219,-72.51110505917458,314.57080992351376
1776353558197,16.575653721067308,23.994239248491823,0.44831448005996644,3.245943456107129,-70.40822641751106,373.41928268023673
1776353558213,8.08761496157348,24.211665317103265,1.0122984625000506,9.74423473788533,-43.671888043603026,417.1853590324942
1776353558230,5.305251019176841,24.666112966156003,2.12126223250702,-24.25837647887867,21.474813137362723,444.20353833231366
1776353558247,2.0346219137996435,28.324753766321763,3.8389531628482043,-90.97171985731754,90.13577300479967,472.62390082722334
1776353558263,-3.3692408707767725,35.15795304231532,2.9382842796877027,-168.9152090426726,87.02434863029207,510.9123567104274
1776353558280,-8.578574770465492,39.346910094727576,-0.10878609954193234,-166.78966783334297,48.44013189564814,529.3480208275323
1776353558297,-20.834193209075927,46.549715274921056,-7.499985753521322,-124.4102018448681,29.148839735931993,536.5286260227234
1776353558313,-30.82863957083821,50.59382056961059,-10.717493984487838,-120.21201241114142,147.89896285335348,531.3721064069306
1776353558330,-32.46986247078776,53.01091561409831,-11.117624754278362,-166.31481942186534,263.41919538020807,558.1989584477196
1776353558347,-35.079842140087486,58.22085274037718,-13.400047087893448,-190.1094636221406,311.76658013711665,584.7841310749169
1776353558363,-39.912238915905355,59.642705159649246,-16.843209071924864,-93.8581441401866,161.41700005107592,607.1376463414545
1776353558380,-43.00853992064148,55.580192686131596,-15.119532701365369,-3.347156827766374,21.83667826713729,577.1127904482388
1776353558397,-44.2360195223704,41.35549594225585,-4.824465699690813,-40.60887604993247,48.85365886875739,505.84708842194595
1776353558413,-39.41933169927262,28.878111652263996,-3.0306104802780784,-201.67502294372318,241.25512224048998,396.56127498456055
1776353558430,-35.58023007699759,24.076839498028157,-6.220733513652905,-290.22195051360535,369.84296831006134,319.5333794876349
1776353558447,-26.718991544397173,16.88061866466105,-14.479382868084311,-275.6091432749566,380.6829702964918,240.71734046599985
1776353558463,-19.98155719300471,10.777947101482749,-18.1865045713678,-185.97684400444604,257.93373385398746,213.20727826291278
1776353558480,-18.670282944323123,7.621343603736162,-16.664389112357796,-111.0330987704797,141.45443348463633,198.0152163411336
1776353558497,-19.50421404072866,0.6567582738578319,-10.655843109075725,-95.9565831588896,98.99109960334287,162.73108746625135
1776353558513,-20.19284702388346,-5.321113774219155,-7.99962571247518,-119.35721423651432,122.0881560931172,119.90003669061191
1776353558530,-19.48670556430593,-6.951562182176112,-8.352469136314093,-131.8685225317119,130.9141675197427,85.44796146042064
1776353558547,-17.434426851654052,-8.189666638293861,-11.925218317247927,-91.27198180342047,60.709152890417855,68.95246721857123
1776353558563,-18.756025291277467,-9.0203061458081,-15.873106924980878,-28.394462417577007,-13.096469384412787,58.899289364147876
1776353558580,-21.123591750225422,-9.754723997929691,-16.51969013404399,23.97863242104246,-55.71191670116431,23.060052232398494
1776353558597,-25.796474840435383,-10.493035350358486,-16.00673096705079,56.30419997013655,-52.66774578431923,-68.17173561530375
1776353558613,-26.758194404625147,-8.186074166759848,-16.002692505314947,71.29063221676336,-9.914876769014345,-143.59659937440577
1776353558630,-25.315240452874452,-5.747281085205078,-15.6957866567865,89.61892576011564,60.32352040987894,-199.8864286265286
1776353558647,-22.00316268110387,0.4655214162528515,-13.565697120831906,125.51592750922312,152.08239907847295,-237.7385583651739
1776353558663,-21.899162518930527,7.744645573756098,-10.166677490124107,165.19371217149944,186.64571076948704,-255.84041747716194
1776353558680,-23.68404009403903,11.188702908325194,-8.014290197643637,206.56875786138895,171.05025787532688,-288.6319917578531
1776353558697,-29.34094061456248,20.02031603579223,-4.840026978435367,265.18173935590823,81.03706627556143,-350.96918853883517
1776353558713,-36.523096828350425,31.251664492145178,-4.449323195018619,310.34469867646004,-3.1703753103471657,-403.69431474237166
1776353558730,-39.87707583258748,37.81641756025552,-4.489575929625705,323.7350659782166,-45.441835944363454,-469.9120971606749
1776353558746,-44.63240690438151,50.63946237684488,-4.158578025033139,296.55438281766425,-29.736840476294635,-568.4016764638312
1776353558763,-42.342055494800206,61.58978965977132,-2.774579718261212,275.88735054022953,-1.6659330843244158,-599.3130362698013
1776353558780,-37.85068164890706,63.21590442243814,-1.3898331138726323,265.25848336142246,-24.74271373066074,-575.2842668451563
1776353558797,-30.021492582592366,58.03021004927307,0.011223258673399687,253.7487676664939,-104.8259867773122,-524.6111480343451
1776353558813,-25.470116395679113,49.40060944044739,-0.8774743239253758,244.48659401984975,-130.48476718700235,-498.5608611814298
1776353558830,-22.627900334388016,45.547442312677205,-1.3277341658994555,227.90644641342718,-107.0888079587699,-472.1585190579354
1776353558846,-15.901390185657142,38.6687508305205,-0.4007285530205816,193.8783483457753,-59.49421250123433,-419.60018607393056
1776353558863,-9.994744467926024,31.852010850690302,0.5099653189394623,175.79740327302582,-55.242645139144,-375.6973693344894
1776353558879,-7.355736272540688,28.607716648400572,0.599149476910755,166.5667714399688,-77.9317275996043,-332.85678361476863
1776353558896,-2.545187171393633,22.520310897284745,1.2119157200353219,138.0572339952554,-95.18916359431448,-282.0446021524559
1776353558913,-0.3806780639648437,18.893093628582356,1.6582846372517757,99.94912242689637,-75.74657932938797,-261.95477550140066
1776353558930,0.29972412033081053,17.854907933697103,1.741183440476423,51.75815924726488,-34.97666449429952,-250.49798011216137
1776353558947,2.5559581562548876,16.32830539240092,1.3775637254134752,18.47829474280953,-1.244685649575522,-251.32522530367663
1776353558963,8.12726658848226,14.691271468573808,1.5355812907121142,15.968430741714334,-7.608560942921989,-267.2299218426983
1776353558980,12.048371526446937,14.5176906791687,2.8254582936378196,-4.693061825416666,-4.126457079515911,-272.63312057055526
1776353558997,24.800185336515305,17.310974074986575,4.166210109080467,-41.98945877177256,37.25375394093339,-155.035554309533
1776353559013,31.85829475326538,18.243369491145014,3.2242415623761014,-39.9512517762653,63.48212090098382,-27.219990899225806
1776353559030,30.72044982975423,17.81151302860677,2.8914474631157234,-8.782752423517222,25.4622929427418,66.38556601526454
1776353559047,27.188402077043055,17.07125755637288,5.496339127091928,10.897129688648464,-97.08184316427086,156.16082797529262
1776353559063,23.57166177869141,18.968363096839187,6.682965514705237,3.404627320103331,-140.37978518100488,228.56629732876377
1776353559080,20.711040876659748,20.04665108501017,5.815067833023704,0.7339930990247563,-132.04735054456117,301.93862094038525
1776353559097,13.637822738105058,21.434090362548826,4.577713647283986,-10.963405575486036,-76.20370339996941,381.7574136944482
1776353559113,7.52722096644938,23.469911715266107,6.078429248455912,-57.28149075733866,-19.028092527597,426.0978816351471
1776353559130,4.172942687004804,24.14417641972005,6.544550311102345,-123.45017777588778,19.204471917628826,446.47900219392506
1776353559147,-2.139219183349609,29.073388798235726,4.609736021423339,-193.87281589254758,30.356642577432858,480.3058419074934
1776353559163,-7.30994599674642,37.25737052276097,-1.1170437622185796,-201.9376846984452,9.910054655460316,526.3519173669712
1776353559180,-9.367762908172606,41.86486103027984,-4.959737792095542,-159.18881475889935,-4.493008145947931,585.8743385494777
1776353559197,-21.052064975628255,49.34883424502462,-9.85797452904582,-85.44751749812458,31.08345325229767,594.0887065359285
1776353559213,-32.429611708942055,55.559843725585935,-8.376712035558372,-82.59719076501905,104.02935449365692,575.4784627836381
1776353559230,-37.06553314197957,61.80825997673869,-9.834033498824946,-105.46337320046861,220.97903633076848,614.300711610857
1776353559247,-38.55547476261556,63.452331251856684,-9.411306519284937,-132.86839392431006,254.25146958940684,644.7071291918663
1776353559263,-42.03290420543253,58.522819671198725,-7.430404012044705,-154.85947203273008,190.32920446811823,621.9723254451019
1776353559280,-41.575461758477985,53.11775978579223,-8.127864517842792,-130.0278002107718,61.76255930573058,570.9785155923803
1776353559297,-36.7306437463738,40.77056079559326,-9.071330303667859,-96.21167023382208,-23.472071441248463,494.09102146403336
1776353559313,-31.708059183612463,29.570785289111733,-8.072798646844179,-124.90254920099929,48.96044204624137,440.41669021116184
1776353559330,-27.666346483147887,20.176088196784256,-9.75233067305237,-186.059120463188,240.71876114534723,359.8490355164987
1776353559347,-25.49779745267853,16.399084855762123,-10.60960406660065,-215.3751666450965,357.15701207778653,299.33192022478494
1776353559363,-20.725704777306316,9.259424698528647,-11.003151110619307,-221.53594263493463,397.31672122752065,245.10221263012133
1776353559380,-17.445050683129576,3.643824704632163,-10.430787276238203,-193.95140404913775,326.52123674444823,185.51143491440135
1776353559397,-16.37409464528188,1.524808351355791,-10.202439416117965,-153.83574961955023,213.37077933126454,159.4625140993201
1776353559413,-15.625457859802244,-1.7238257798343897,-9.137618812285362,-124.3485662177979,111.01619405228392,146.8100804354917
1776353559430,-16.593612863866984,-4.464285932481289,-9.00907981839478,-115.81582945375442,21.73020074061867,136.8043177542866
1776353559447,-17.86972147194743,-5.421072278052568,-10.816105859485267,-96.55718218317634,-24.535262102547232,114.93175708834464
1776353559463,-20.733636154827476,-7.937527860480547,-15.465345039257405,-51.96884326240309,-80.03345193929809,69.5911855286158
1776353559480,-22.79848661815226,-7.519289004406333,-18.006490241783855,17.48977853970651,-113.1565294513558,0.2531381765023383
1776353559497,-23.16180613555908,-6.523452504950761,-18.1103404923588,57.70275633477753,-82.97862267921842,-46.33792261252328
1776353559512,-23.048678938072918,-3.825636146765947,-16.814478259277344,85.57569965827821,-25.951068109937083,-92.78851602559509
1776353559530,-22.000169125311075,0.46118251026570795,-14.15137636386007,111.69255353484444,40.658449562928425,-158.30624503510697
1776353559547,-21.740097800932823,3.007867226740718,-12.748971864640712,133.59585005205145,55.09550920404359,-210.17369072418666
1776353559563,-21.214421629577128,9.523387769648432,-10.295065385106206,160.74990913521913,45.38287433635332,-256.7008027465301
1776353559580,-21.69116630450338,18.201321324488518,-8.429833531023561,193.39151978249345,24.160660377517885,-301.4048553171271
1776353559597,-23.08848305212967,23.07382039359212,-8.39287245837301,228.00936370384093,15.34767241409231,-334.59479355097005
1776353559613,-27.717673167618177,33.22642961087525,-8.316557572716475,267.3845573255074,2.4780436438559894,-377.2701433342899
1776353559630,-32.1066925909847,42.39427843399048,-5.080494461546838,284.0350285596244,-56.15836518607303,-462.2602089127529
1776353559647,-33.84742742004394,47.85530219868123,-4.387074024919793,274.94341839693374,-137.789736466601,-533.0218429782988
1776353559664,-33.584064945165814,58.794411337500804,-8.048855753459781,283.598115018797,-222.7136584931416,-583.6049672166059
1776353559680,-29.545345727428792,64.70898434109985,-10.471488832325022,298.7286505965327,-267.0209180540959,-595.6584479317376
1776353559697,-27.86057770026326,64.29044913242757,-9.670927825740211,289.0174329930952,-248.59049952227357,-576.4678020245361
1776353559714,-25.214084702080488,58.13480702656209,-6.363936371657438,254.74078434154657,-211.0841139594143,-555.9860864396621
1776353559730,-23.003339913177488,51.221403017866606,-4.522945078731515,198.0689152883882,-142.39368011816146,-535.8489948795504
1776353559747,-21.020492610278723,48.0592576680839,-4.405929239776357,168.9833333494543,-97.60865565495395,-518.9223107953981
1776353559764,-16.50427950668335,42.53000120190531,-4.509029402636364,151.81166404015198,-69.61034420923768,-500.1409844647772
1776353559780,-11.908310729327797,37.56487458377774,-4.790198240905255,141.60419221237802,-59.08982432123455,-470.34830036182854
1776353559797,-9.713426357379555,35.10692727702036,-4.941631495910138,132.4756717074127,-53.39170485520557,-444.2046858040942
1776353559813,-5.168782109069824,30.77865885761678,-5.1479817514948545,111.75064429373539,-28.810014541775168,-399.38146009285884
1776353559830,-0.8813660706669092,27.358692592731117,-4.951806633770093,97.99202734287759,-10.119003802549345,-377.4630551972077
1776353559847,0.5716138927966355,25.92112354888916,-5.25003430499807,105.87799300384506,-35.344296011280875,-376.6418205721621
1776353559864,4.292203857201337,24.43387482059896,-4.245667439214885,104.91452651952306,-72.42916327970194,-373.7073254179145
1776353559880,9.757418643841147,23.505074798583983,-3.6198834186829623,75.39095870006209,-68.76757399773898,-331.1030096019628
1776353559897,12.760495713695883,22.05269046292603,-3.6749497646056115,56.9957668688841,-38.08259739671444,-285.05780840669877
1776353559913,18.74450348804891,19.273323364257813,-3.7008361932732163,41.303519948901105,10.374450316186884,-203.53167326580774
1776353559930,22.430675050023197,17.14367864946127,-2.9541444043815135,32.984609087014036,52.108155215809255,-138.70095200377241
1776353559947,24.122777657860517,15.982793042102456,-2.521841220989078,31.102707555567935,71.54459914067193,-66.31033148155686
1776353559963,26.659732422959802,15.077633423393964,-1.0209762014091015,42.04673332305771,50.96194702024357,38.39534834371474
1776353559980,28.421867182922362,14.395585809978842,-0.3513486552365124,54.028619995309256,47.643202498763976,131.89286532591382
1776353559997,27.896337580430504,14.698600788548587,0.15592223698720334,72.43720241235505,52.06502257120063,234.28272853195756
1776353560013,21.716008777076006,15.441553244781494,1.2384008087158203,103.93067875071776,54.458614554507406,347.80019933000267
1776353560030,12.412440400916337,16.032921639361977,4.037522409167885,102.53254585780532,66.48993130578233,405.56887382046
1776353560047,8.176047862786055,15.95136885305196,5.290886685998737,73.3692022151708,83.26603703949256,439.13493691151723
1776353560063,0.1541261473506689,17.02292490261942,5.7520694885253905,27.59003347298417,100.76643652335844,452.62677350358354
1776353560080,-6.080226507136225,18.936190719769893,4.421492938806861,10.617359163829217,114.59206446016323,448.81244070121153
1776353560097,-8.413524493518471,20.64250853463821,3.920954715839028,-6.41480225101514,142.4426252537538,453.06614591251207
1776353560113,-13.801075610241293,25.5908728459347,3.6501110914252695,-40.57250529260215,134.98323905739946,529.3484033181259
1776353560130,-26.460266666191814,32.46776988242269,-4.712237341607362,25.11831949349808,133.93196366110777,545.8575715986937
1776353560147,-34.855834647259115,32.74175545812398,-2.894439731133729,78.31334392891125,41.40478091844113,483.0442013495349
1776353560163,-47.94403729771077,33.11584975978434,0.45489908261466766,73.94622342644264,-73.7173711081122,410.1051302973456
1776353560180,-48.024994748476146,25.866955905371903,-0.7544729077545925,11.374213279531977,22.37229487166052,352.6272579409908
1776353560197,-45.78865608411133,23.593660844531655,-4.394407326949946,-11.430195217516694,147.603379586832,309.2858281098113
1776353560213,-37.421521585845944,17.17181344157755,-3.8875845438199117,-19.02592394253552,168.27336250598816,269.81069516020926
1776353560230,-31.855900551605224,10.27845911822021,-0.5363006056194193,-13.022749445153547,80.17441338338881,224.05320885354283
1776353560246,-28.74209107044637,7.37982792674601,-0.02349255580101162,-9.384022513889906,-8.131999320155087,177.40762036985635
1776353560263,-22.53153137947917,3.982455770984292,-0.4915589986278675,-22.482137973892666,-37.96139568989256,131.8920730239701
1776353560280,-17.452532417187093,1.6965911514282226,-2.9191297439578454,-27.818125932769455,-19.45341182230828,107.3747948095075
1776353560297,-14.730474767193197,0.6654390084415673,-4.071788219419052,-15.76190801932795,1.120838631832441,92.16297315045946
1776353560313,-10.149021129663288,-1.205180091637373,-4.992807643160946,29.565091954520078,0.1260697107093913,82.93745029890158
1776353560330,-8.036885183550417,-2.790742479163408,-2.624642912359163,63.61501589166476,-26.574978569861067,70.94384302203429
1776353560347,-8.012045341326296,-3.7734114540100094,-1.1342528173033148,90.92957075994939,-67.84863351661629,41.69186401454052
1776353560363,-7.015459484808146,-4.5223470763057465,1.8263270634857938,99.67704867149808,-120.07988923183669,5.981008825977991
1776353560380,-5.2398602631166575,-3.113957365196943,3.9359184396823865,85.4384265163393,-139.77596913761906,-3.878813630118289
1776353560397,-4.907065063311159,-2.057666689300537,4.280234346737899,64.07885403820032,-150.1233095792165,-1.4729048947472738
1776353560413,-8.496871177507936,-0.333692440906167,4.10051958462242,26.995084722688333,-174.088585565337,-23.134496171709753
1776353560430,-15.879392581121623,0.5979518646240234,1.33746119466573,6.597517068388974,-208.49771256602725,-69.4144134027067
1776353560447,-18.7346282829836,1.6525988649666308,-0.8001118882775539,-8.804333259973523,-249.28545760994402,-123.20771972073067
1776353560463,-23.905955692622065,6.756289785444736,-6.59931727221962,-11.691188698533928,-274.8613468438669,-174.2562257283258
1776353560480,-28.721591887775062,12.46241994509399,-13.073388308483734,8.832471931806683,-254.08410263398486,-207.74488911570845
1776353560497,-30.391247101482747,14.337228313556313,-15.501407994024454,36.49932198106505,-194.707219122313,-247.13392070063333
1776353560513,-32.55291367896199,16.68234883967936,-14.837914274431764,23.042326183955016,-65.92943915230192,-310.0673656754009
1776353560530,-31.400853183093666,18.68749214553833,-14.497040689849852,6.131757931149342,24.221925466825606,-359.1835838460427
1776353560547,-29.31056491165161,20.319140576934814,-16.017507943261414,25.91256633358572,59.76594474717412,-387.7342936710729
1776353560563,-23.69825694503784,23.615956555230913,-18.437895964879914,92.19527994523362,40.06388842586799,-382.8249722617212
1776353560580,-20.28906400310099,23.63825431175679,-17.56012214655131,144.71158677527532,2.2320603573135043,-374.1833622823077
1776353560597,-19.614198410144446,23.158064903204142,-16.86161351993978,185.90548218799773,-19.06138286961164,-370.7348817326383
1776353560613,-18.63691521998942,21.392491108703613,-13.256843499236552,202.27125747713026,-19.43080731125012,-381.34129124945434
1776353560630,-17.516726949200034,20.948965324224904,-10.524610857513174,199.41558270590463,-4.382972090871733,-386.7933394902553
1776353560647,-16.2998751244694,20.76162015856253,-9.537152419900336,192.2594022671855,23.573288014558884,-385.31774542196575
1776353560663,-12.712762487140298,20.015824277330935,-7.143250582940876,179.35987967994274,62.99507377164855,-376.2897106600696
1776353560680,-9.763556123682855,19.6133,-5.325751699685491,173.59607428466575,82.66700212852575,-361.48751593611473
1776353560696,-8.923490031653643,19.21526455852091,-4.466084341939073,168.22652106866022,93.4279993168267,-345.3457025498669
1776353560713,-7.786243658557534,18.01427168944031,-2.473509078692272,161.0176798714403,85.82071903437408,-328.70826331668627
1776353560730,-5.081993467932939,16.501434930907187,-1.0058639724731444,158.41200368421545,61.961085584146176,-310.9834033261263
1776353560747,-0.8279454461246728,14.8439000708431,0.8803175845272838,134.02605634711387,44.52660767105467,-268.0654725442443
1776353560763,0.9136872085571288,13.634828232464194,0.9407715417724102,116.79639873175812,58.88782147653143,-227.7558407422284
1776353560780,3.3255455214351413,11.238081564000248,-0.22834705640263855,109.67111123865497,90.73011557580668,-187.79896089008702
1776353560797,5.2632028525203465,9.483132916149497,-0.525826393481344,98.82688136512826,151.06763787348413,-134.02981295115737
1776353560813,5.954079669079184,9.098714496612548,-0.4040213109556585,98.78684962640281,173.0970196827696,-92.99308019123697
1776353560830,9.39290027203858,9.776421450474858,0.6675325466547161,114.4618537338261,136.8290976805954,-45.38974892175293
1776353560847,13.651738450732827,10.31033017425537,1.985392018945515,145.85549319709074,67.97202771416174,40.91456458133098
1776353560863,15.317653308868408,10.494832755169272,3.487454212420806,131.75802373131944,66.98025009573004,113.83284112259211
1776353560880,15.899146206122635,11.273548014178871,3.8349126552857458,103.80299519437354,106.54965331625661,191.6175693908794
1776353560897,13.746460222956538,12.739247758483886,2.308009669738263,96.68741340008097,130.17821463667383,298.12573613811736
1776353560913,11.855037404301761,14.05815301350057,1.8827399286465718,118.72017615300557,120.75432943124044,379.0157211200917
1776353560930,5.200656087714433,16.27293977127075,3.8340146652664058,127.98153017694935,108.21362400185512,441.34958476875886
1776353560947,-10.526705564770102,14.691420813916622,7.349002580371499,72.6036882733741,123.03079050047066,446.77362923396277
1776353560963,-20.121319080242515,12.151172267968953,8.676586834672559,-21.442427795413106,177.88106176236494,375.6025663088096
1776353560980,-33.246333750262856,8.431630059051512,7.11930805488266,-124.52279068314658,214.62263006272283,296.0087599860069
1776353560997,-37.48780987526774,13.096432335065957,-5.416731472369283,-81.59767454225774,-11.02875853301201,333.64949536984034
1776353561013,-41.52967177494466,10.135403961590677,-11.718269730443879,90.41798276092626,-203.08380410155166,316.56716493488176
1776353561030,-41.792586798316236,4.149300968524068,-6.792050798123143,186.6192506166424,-231.63807928532864,257.0730207355391
1776353561047,-29.242780830714104,3.850774387414753,5.544672167006577,117.59878203469454,-87.7687367969859,219.78865730184032
1776353561063,-24.97511461791992,3.5181294097349047,7.629871677641989,32.556182056230405,-1.0864051936271737,196.3157559926077
1776353561080,-17.253963901519775,1.7097589682981371,6.561608404275915,-23.30546092927705,16.207721296643854,170.94086556557997
1776353561097,-8.412626667895912,2.264016944885254,2.336441590770753,-36.00369271903766,2.176088237725719,171.4585529235319
1776353561113,-5.038597978320717,2.335842994689941,0.7731773524962365,-12.075168273293706,-4.425753407624931,191.45184168085822
1776353561130,-0.6477811866760254,1.9499279068544506,2.0983685741809195,3.739635719174586,-17.28787473274635,215.2882729784756
1776353561147,1.6927005737304686,2.0088848304748534,3.667917290419247,6.5405601209002375,-60.051125635589656,254.68846509250426
1776353561163,2.207455099707842,2.265961649212241,2.8296470870971677,15.277251456202185,-76.97765945558024,295.9458402833728
1776353561180,2.4323586645931004,3.084180651092529,0.015262962518259883,38.41610528860241,-72.69749409143506,336.836570919595
1776353561197,0.19467852249145506,3.3638533325195312,-1.4160210462374612,89.70853101183704,-45.54806929161925,371.87344694652273
1776353561213,-1.144727668762207,3.8177047692447896,-0.8382707695776597,120.01940107654706,-20.793387361985353,384.74185119190696
1776353561230,-5.25407671225667,4.314203507563471,1.3260885175842791,128.51186704524414,22.893136069461722,383.00728367104716
1776353561247,-10.74727226949483,1.5010142187923192,5.88225413073115,78.17963614571909,65.00000067042492,323.63807729200244
1776353561263,-12.296470673480629,2.0691893693119288,7.41304667106308,15.066589639178774,68.03021409570108,279.5262021224455
1776353561280,-16.81178551306203,6.328174263000488,4.517110636956989,-3.49985808637988,-11.604901211201865,269.11579171405214
1776353561297,-28.141746903858333,9.73542308513224,-1.2119153547091408,38.220953123636804,-196.22901259014853,261.5727493607435
1776353561313,-36.592528822625425,7.28420949794352,-4.015375788083113,72.0246316657296,-267.91406091072344,188.4493315028556
1776353561330,-51.955674520320066,-0.8153753028869628,-5.192574049676209,-3.6017107210567563,-148.16570906119915,-12.491349628669154
1776353561347,-55.635860066687314,-0.2657575533211231,-9.737966449472122,-72.97849490407856,-8.827656648441824,-181.55922791344352
1776353561363,-51.81381829115152,4.229357817187905,-15.532083702795207,-39.32483122182134,-2.8720386238165325,-297.6708182186378
1776353561380,-39.08489377376139,16.092476821136472,-22.784420208474806,52.40680865236265,-121.07760228465713,-335.74707378470794
1776353561397,-36.49062605285644,23.777564875030517,-22.685358653481117,138.7793079339308,-281.4905645277412,-372.5561106936872
1776353561413,-40.331824510413405,28.532749231830238,-21.71600808295626,128.08597742973717,-309.19318342390926,-435.684735154177
1776353561430,-46.90420851179361,39.78310341742635,-22.32263971404964,77.76506415366681,-231.51631067280564,-536.8209581191999
1776353561447,-43.25739047056436,51.909581681382654,-27.733533648505013,79.76971784487638,-143.2174692339567,-572.448536226307
1776353561463,-36.92023678229451,55.53455497055053,-29.156288455410323,118.53808330973304,-90.98335849966324,-553.5303875462325
1776353561480,-23.412298899731038,53.75745761925578,-26.30868575205277,176.3299121414767,-140.9961004705718,-503.51028946158783
1776353561497,-15.413122100067138,47.86338409058899,-22.489184777865372,197.9347157315758,-194.39659577923916,-475.98872521993843
1776353561513,-12.799402075195312,45.14566227784231,-20.240282144275305,186.83486602836138,-194.64043353260863,-454.4612530316222
1776353561530,-7.408259071460366,39.02114720471166,-17.799691730974985,172.991056127986,-148.13893471965272,-420.34560559918907
1776353561547,0.5113116920471191,32.633566191964036,-15.536273701830952,175.61178605214155,-134.95276275332284,-374.9920020385239
1776353561563,4.742762097600102,29.488782713207602,-13.99321014733836,177.00772645433042,-142.13959708103698,-322.0237211005349
1776353561580,8.719830914849043,24.2185466010496,-11.429170245306192,182.4983516035636,-179.7041621952464,-285.2030455492099
1776353561597,11.258583669281006,20.708796604864297,-8.974514116448164,160.3927448831408,-170.0875153910569,-282.59347615415817
1776353561613,14.333338904902337,19.87127552114278,-8.420106794518231,128.9661429269417,-108.65387067499746,-268.5642129574386
1776353561630,23.428310707855225,19.17231798171997,-8.473378073717653,109.68444376791483,-10.882612975341248,-199.80831858318035
1776353561647,30.69710811713338,18.45211307160705,-7.330595401543379,112.00312223640492,47.59080470254622,-117.78815585962231
1776353561664,32.16460117459595,17.997363224737345,-6.108505676159262,116.10701407845039,88.2620881909251,-27.5117424296229
1776353561680,32.61471517835855,16.268900432752073,-2.287510048675537,116.78514258000594,79.57735922728132,86.87977401613041
1776353561697,29.116634577178953,16.066588638903198,-0.21293343336731194,115.58634875802032,52.36803708353907,161.5524563626956
1776353561713,26.107719887211918,16.474052126201986,-0.03606149346232414,117.55980897529045,36.834407646651286,223.16256584615152
1776353561730,19.847181821110844,18.216431799858807,0.04309709118753671,117.42506300334443,54.48488687714986,292.5757703053751
1776353561747,13.475465353503823,19.10677671127319,1.590797950091958,104.31482908020678,81.54380484027384,321.0687786922971
1776353561764,9.645338909581303,19.700388500866293,2.4738094498783347,84.04523868038595,105.35635779655286,325.60470732010253
1776353561780,-1.8318652987927198,19.356821293286234,4.8053135385811325,46.24072219044483,100.87484528586488,263.4051251905179
1776353561797,-11.892598780933021,20.334553103991595,7.60697751699239,-8.559623803711245,91.63686416926089,204.4400064631494
1776353561813,-11.82496141498983,24.079232676775007,5.673809021759033,-47.75010178946385,157.04005090639168,219.76432816801673
1776353561830,-12.813321294954418,31.482405969403683,-0.21742256148010491,-69.7679781450924,275.1909990939684,329.72970444668334
1776353561847,-18.908506301769613,36.29729426879883,2.172439315906167,-129.86477725566195,278.43859011976934,394.32397822003117
1776353561864,-23.68479131426513,37.82359782714843,0.24899792250432073,-160.11307595738546,227.9085364513132,421.9487876011745
1776353561880,-29.778331476482748,40.17141124561727,-6.611288536248728,-127.09281328290396,154.903540413255,441.6295132417027
1776353561897,-32.711678007507324,41.35085659201741,-8.396464491515607,-86.58888308956874,73.41915821876027,475.3398572487872
1776353561914,-34.71682365145385,40.832361710467936,-7.867944730764441,-47.727224070838886,-4.30002926179886,502.5531340720589
1776353561930,-40.46844364264607,34.691384089770914,-7.445517154296114,-12.80753359950103,-25.544147637302526,465.14254874249826
1776353561947,-44.06243639487773,21.048024760326744,-2.6942244711726904,-44.39211441610795,7.3700063408755385,356.56538109188006
1776353561964,-41.33409630361348,15.77569401397705,-0.4703109886169433,-126.30926764169844,76.9802412670865,253.99211364624313
1776353561980,-33.21520795963704,9.69711468952596,-3.2956181468136605,-185.50733680089937,158.81954741161178,153.40637660756656
1776353561997,-26.187928857697546,5.036503051868081,-10.757895808709412,-137.91106794701713,132.57843873366468,105.13904849791973
1776353562014,-23.35274590991363,2.735226928168535,-11.92327302839905,-66.62086603217148,43.561457545102265,81.06297318308329
1776353562030,-21.58118514995798,-3.733456460240483,-9.497048774907737,-19.27794255498336,-13.073092208204772,38.35376956714229
1776353562047,-20.551678728351742,-9.174131264385581,-6.503698587688803,-13.155856171698755,-9.439578418825144,2.667186096125629
1776353562063,-17.913118130603433,-11.407771775707602,-7.583333898815512,26.34935351591345,-20.94127974053635,-21.810723548291243
1776353562080,-17.637785231946406,-12.997373209491371,-7.455394039861858,65.87954462041498,-21.067692881694942,-35.127522882497594
1776353562097,-19.01878994639292,-16.21697472294271,-2.4485196719296276,65.21469400660594,8.637182309284032,-55.292915331435296
1776353562113,-19.653851790618894,-17.192313208770752,0.14110884486734868,34.8353376350882,4.600563988581768,-85.97650198896373
1776353562130,-22.05448815999776,-16.596605908203124,-2.72475039620921,37.87406489116478,-76.54569780190111,-144.33767489935215
1776353562147,-22.773198739899694,-12.116604520195722,-10.997315244072675,76.72968943776293,-136.20214095630158,-181.55801213977125
1776353562164,-23.687931950378417,-5.9308870095402,-16.244209789740292,128.57609814419897,-138.75977359290457,-221.3807060954786
1776353562180,-24.848223391236363,-2.325665884068608,-17.59708234241903,158.92261496618727,-88.98974922434158,-255.76629626428897
1776353562197,-27.719770176430046,5.968296995002031,-17.43143402651362,186.2940653102581,-58.165904632206924,-285.99021119067555
1776353562213,-31.201087566596268,14.758608390265703,-16.12165496655954,212.63228561782444,-105.77291054346442,-320.16153832522264
1776353562230,-34.15927277080119,20.054132965198157,-17.25261660596351,231.38186522918312,-187.5624041183728,-352.7773035366776
1776353562247,-40.254612675917144,33.314119584766026,-22.973412636737418,251.1228331381908,-221.36208699980114,-380.33553223379164
1776353562263,-42.9702341553837,41.270648498314614,-23.382071816077197,229.00284203937596,-165.94321614988164,-420.4050009242115
1776353562280,-42.8798530427128,42.929083522088824,-22.99017189994475,204.21129074860235,-99.9406188413797,-456.44665241956153
1776353562297,-39.042697138544916,44.25322667775899,-23.487267056086893,210.06502241449175,-53.26232058175801,-489.47780241558
1776353562313,-33.361255429950354,44.73879909452423,-21.08902595694726,241.3198724338217,-45.24473376038981,-511.8657964770478
1776353562331,-30.218865166473385,43.60619185247086,-19.360112325055105,260.16291635378286,-80.7745206340553,-515.5249200607204
1776353562347,-25.024345974078773,39.49385286991279,-14.672115855131716,252.41032379673823,-102.19705379596346,-518.4972544629699
1776353562363,-19.309686471015215,34.9138930146046,-11.112536162435077,216.30780165550505,-74.50947497634775,-519.5488850290984
1776353562380,-13.881881669837236,33.45507791524678,-10.473583703978731,211.1041400740608,-49.396529134179175,-477.01232468971324
1776353562397,-0.7568675843387842,29.93290799794942,-11.073480857451631,237.8804350546134,-63.40683172576277,-397.2106893708454
1776353562413,6.784568369945883,27.38861894443929,-10.158446837395429,292.17380001234153,-61.46403222767683,-297.2738749448334
1776353562430,7.324460259789228,26.594491596764325,-5.336824261309206,250.68660261628042,-20.401612833835298,-266.5739777955669
1776353562447,12.351686364746094,25.438539938676357,2.152239408442378,163.13293481587988,49.44200111857854,-237.91259158522584
1776353562463,21.784542215076087,26.70671979958415,2.110938260760903,87.82920446170803,80.92344607871826,-160.43186820670664
1776353562480,26.262298454505203,27.698668059429526,0.5805941948488355,97.41601699960292,55.439801964631,-62.113091444124805
1776353562497,30.711023245239257,28.160000207298992,0.9633683543100953,112.90643524470661,29.3201886916401,51.24805339929165
1776353562513,26.6733517829895,27.15204130837321,4.110396798981726,92.00814642235362,42.24823756395142,181.455395377681
1776353562530,22.877193659642337,26.601673617222904,4.6918882349312305,66.65233271367774,53.7020788963747,256.0945278350431
1776353562547,14.800956416651605,25.553914038306473,4.523994258990884,54.95744717525553,35.18747486793738,314.3494025113786
1776353562563,6.694787561255693,24.15928981769979,4.6034521188482636,49.98268572346591,4.073367726644695,360.62838742155384
1776353562580,3.2380057696700093,23.27717497449219,5.081994052454829,32.10276336327369,11.36001331624752,377.54121988206936
1776353562597,-0.9252098885685205,23.324312573242185,6.022316462220251,-9.567267951584885,43.8822168889044,400.4432539804723
1776353562613,-3.643676820594072,25.730185601165516,4.753389290076494,-76.33409171122496,80.70584308195083,442.56221655400293
1776353562630,-6.692541828155517,27.789349643751187,3.0572461746767163,-104.37216851828904,76.00696663111637,465.14533545967964
1776353562647,-17.00661469607055,31.328876180510967,-2.0078359059438107,-113.31130153794828,88.18899150642763,464.69858644644745
1776353562663,-24.153454535675046,37.05146691496521,-7.229739802739769,-104.61701713965566,134.60979163433984,500.61756774430404
1776353562680,-28.65230850819051,40.859445239965616,-9.457843430461734,-92.54790895170305,187.6214169528017,560.636844207794
1776353562697,-38.22148480006754,44.99183876670003,-12.234818081035463,-68.94974880328157,244.67450618429513,594.4393957686736
1776353562713,-42.25317075816691,47.31406473944783,-9.61810574247986,-53.98560346391651,254.11672361746085,612.4874329900019
1776353562730,-44.86868760332763,46.63291553617716,-8.546101547286101,-21.896123111031205,206.79763750047607,587.2856195565424
1776353562747,-45.987227814649046,38.4797593041569,-4.526835327635705,16.990549767986526,95.98636278367086,538.5763167358932
1776353562763,-42.62083035060465,26.98055719898641,2.8033120744118465,0.22657247589069102,-26.00022156629908,464.1142501025745
1776353562780,-42.35582420017272,20.19883252803385,4.721965612482652,-84.53184184742517,-26.738045921200538,352.0525931449826
1776353562797,-39.24201252705678,10.120140779876708,0.6162083098698407,-200.65649147431253,97.72265834239063,175.22187787318222
1776353562813,-31.182082860266416,6.556221971130371,-6.790852272520959,-234.07689395113007,198.73114310955597,68.06693319267907
1776353562830,-25.718065978174284,5.829731404876709,-10.052204138725996,-199.05643769896702,224.73027184558785,15.777339124210302
1776353562847,-16.89258908843994,4.093784979137778,-11.62100550719574,-103.01804253419898,124.63863069147,6.039446216969328
1776353562863,-13.52813779002726,-0.553059998974204,-8.593237794329225,-45.32128310551273,28.45984611095425,3.447542892762402
1776353562880,-12.816311708942054,-3.0421336534798145,-7.1619541143670675,-6.046389104260645,-38.800965957765115,-1.0705747361217883
1776353562897,-12.891130949213355,-7.746587939995527,-6.123767834959924,34.45989579679094,-52.08653425199158,-12.330967395447145
1776353562913,-12.75929948964864,-11.157729093390703,-4.606293625884502,57.513539604200666,-35.277821195183726,-18.70809645743461
1776353562929,-13.400047855078428,-12.450745873913169,-2.963871725408733,56.16262380902053,13.287507214177104,-27.34261157784775
1776353562946,-16.119262682861834,-13.934402130669355,1.8222880537606774,15.005662644234969,21.93711790642962,-55.22533743978719
1776353562963,-19.351584269415586,-13.84671683295369,0.4644755604617297,-0.2859787932488174,-38.04196118624745,-86.45953296706703
1776353562980,-20.32183405380249,-12.624924629211424,-3.1506184319876134,13.745768511255354,-98.02765360958838,-113.57570499090865
1776353562997,-21.55275356685221,-9.53281143155396,-9.6679343338795,27.32347509534067,-81.23879591269775,-156.50384007541064
1776353563013,-23.364715603040157,-5.755509399846196,-12.90040658095032,33.73929717897626,-8.079036325783514,-204.29381309415444
1776353563030,-23.77337619116902,-2.817376803588867,-13.295748837822675,56.443911489609164,34.43420404022794,-247.03215088200014
1776353563047,-23.409606884168088,3.901801102557778,-12.160748197826742,91.89695777285498,21.734240797512733,-287.7252431643989
1776353563063,-22.869266081513462,11.110294557520746,-10.813410775182396,108.22224370058767,1.8606903789786287,-303.03112335850716
1776353563080,-22.194548080334066,14.213776121410726,-11.42602705190964,130.15030648372516,-13.187997334385543,-302.0130973230951
1776353563097,-24.071752988544105,21.0682264213562,-14.334533521514386,184.52652163608553,-24.310514727907965,-288.0128760907264
1776353563113,-30.87353085196614,30.01910013449788,-14.751274613311514,218.0061145322504,-31.92495304861075,-285.83270702841503
1776353563129,-34.828301912689206,34.070386280602214,-13.663707824198948,215.6325691541576,-56.96464169683635,-316.1790189447283
1776353563147,-38.75105111072957,40.33062507149577,-14.948495851688877,199.27627416759304,-92.71876613379091,-383.43548189049363
1776353563163,-35.135208638000485,44.63375539638102,-18.769043086951132,204.04295390631822,-82.97151245229243,-410.5857843696178
1776353563180,-30.91931762062907,44.51584125687927,-18.999784746872727,211.08677773319062,-50.37485811013512,-406.0625052521552
1776353563197,-24.199542917633057,41.448718123571574,-17.892316750115157,220.30292956520725,-8.58476146117783,-390.2755611744245
1776353563213,-19.22918027114868,38.06421392495036,-14.805741970427706,222.22473989197374,20.30259045879575,-379.86064284117896
1776353563230,-16.430208892822264,36.20167489014827,-12.699892191912234,220.81284416788372,27.356953267557486,-365.89490040374056
1776353563247,-9.553762449645996,31.947328616045787,-8.9769086834345,227.35561897762233,-20.438316562887657,-325.2486358982914
1776353563263,-2.9583365953743455,27.588236530768125,-6.615627259572781,238.45832369990984,-96.92775409659538,-282.74647239156644
1776353563280,-0.24091712657511233,25.592069873699543,-6.616374972667544,254.47954326617193,-151.10594157434957,-246.3131778492079
1776353563297,4.119373009380698,22.260837831060588,-4.520700441609882,221.06371701609828,-94.68698759596764,-220.7644727681817
1776353563313,7.664886977386474,20.592976807293294,-1.280447806328535,171.37201442674785,18.937437134290715,-217.36542912772484
1776353563330,10.645217377904057,20.092289677374065,0.6335667102973908,130.3845546514999,97.19121498345028,-212.24397570313087
1776353563347,23.088333487591147,20.52549083251953,5.147085825568437,112.10228292277516,40.7490383618903,-134.8143831207384
1776353563363,32.6989611492753,21.208437148340046,6.748507972462102,122.46031944061285,-62.167384617837236,-36.45507601562171
1776353563380,33.38669323806762,20.610784266662595,6.901586291260272,113.6007922757301,-89.37803864846764,49.91008081258868
1776353563397,31.241637603649494,19.658041351263225,6.268619665747881,73.74071669469531,-29.817071293380188,158.4698690468638
1776353563413,26.51219208374023,19.996672125354408,2.6309295183479784,67.95650269417831,6.552475385907325,238.24423825056496
1776353563431,23.25862049614787,20.101417863464356,1.389385589300841,86.70746200374933,7.31601540303388,306.2202752857695
1776353563447,16.002992365044353,20.846762475530802,2.2875109254583714,99.75691407346304,-1.1626066259892442,377.5869275079951
1776353563463,8.475623514556885,21.955278720965982,3.399766795813292,88.94975846675116,8.40999399579013,411.73749086746534
1776353563480,5.1138656930118795,23.40706114520803,3.434782579614967,64.39317251361514,28.637782784116833,442.17898830005186
1776353563497,-2.0519804603576657,27.69133669362813,1.0350444742500782,54.63344349159764,45.95719762290301,466.69327489165795
1776353563513,-12.420069580620526,32.555157366235555,-1.2725174517206848,71.82249904743225,56.45774603777302,453.3533143859761
1776353563531,-16.817919924163817,35.75740208669453,-1.1427809186086058,87.78855117576812,78.43559065467613,433.94068733074926
1776353563546,-23.76798806838989,43.81239517386555,2.1227602890450505,60.007453406036596,137.66889675980514,467.47847343864265
1776353563563,-27.916839685711263,51.0222330291748,5.758504818802513,-1.265392221818062,146.72488065578497,544.5521312030074
1776353563579,-31.414020707702633,52.43151881234049,4.335002860491443,-13.004758726879732,83.45413361904554,602.0787711100362
1776353563597,-39.745694308747346,49.454330216979976,0.2085956233587116,51.46070450891082,-53.40460025235855,592.8918934688022
1776353563612,-42.413731322479244,37.304954477038976,2.551920936628058,93.63093106725695,-140.48626783016536,530.4680625683877
1776353563630,-39.397786295484,23.585880858179927,8.431032444784814,47.3005865496178,-160.01377866723183,409.99204968544694
1776353563646,-38.980895127691696,17.530046449500322,8.540716949904617,-18.209320185747135,-97.03609455721012,279.82003686053946
1776353563662,-35.37687389779547,9.299977073669433,5.284453145819902,-91.121990849247,14.845967698798193,145.3939909752513
1776353563679,-32.204406366364935,7.0938698814392085,3.2208014272930097,-151.33882370429032,115.2455632995717,31.945539238769168
1776353563696,-24.01863190407087,5.693561769977212,-2.2346867324393243,-147.11006234383868,124.88987236989975,-47.884898987828635
1776353563712,-16.02678580348808,4.921430565533042,-7.654859942760318,-72.18740873402935,35.52290545807671,-53.20193146421135
1776353563729,-14.293383253545686,3.317616482001543,-7.607873442918807,-10.188833949076264,-51.11079391773107,-51.70419050753802
1776353563746,-14.41997739697881,-1.105073703765869,-4.461593332396447,7.4694282819815365,-86.36826114918816,-72.34584180201696
1776353563762,-15.943736896868794,-4.566192063251138,-2.6821035330072043,-0.08162764413167528,-81.77277327182017,-105.13723849778968
1776353563779,-15.90737459382899,-5.670366772350668,-2.741359877965599,-1.5375413227406316,-85.87424722689947,-134.01874804470197
1776353563796,-14.256423423004149,-6.66500909358561,-4.216337738225609,23.63156831119931,-128.32439201290563,-151.34517578021843
1776353563813,-13.73733101395294,-6.868664118736982,-6.110001175414025,47.06151285319443,-152.48237495626887,-153.15036745709614
1776353563829,-14.520084734698385,-6.672639442333579,-5.764787223540246,44.764694405142976,-136.41246980160295,-160.76658845717228
1776353563846,-16.792182548578083,-5.639689894536137,-5.492447661480307,26.05133528695287,-105.89991108089164,-189.33068545297573
1776353563863,-17.93062485346049,-3.84403806489706,-8.352321252276003,35.10051631451936,-118.6054426353277,-220.3598387013718
1776353563879,-19.317317112024128,-1.006910851177573,-10.200495296312868,65.4323584750759,-86.83521386198525,-255.86765627157195
1776353563897,-19.186981590105592,0.8066969063907862,-8.9112178484492,60.63610401724457,-22.757461191788586,-266.325058381455
1776353563913,-18.38776860972941,3.5200767444103955,-7.8686921515982595,54.74378519763919,-20.592658347562434,-280.22490315378116
1776353563930,-20.457704413494465,7.1573156409114596,-11.911751225170493,51.83072659210168,-63.11009415727157,-318.45068522116117
1776353563946,-21.70029565963745,11.309460454559325,-16.45489785533361,90.02462533643606,-83.65023518030577,-341.1509828522386
1776353563963,-23.447315268054602,24.71983286590576,-25.11682047883235,152.63052175936645,-85.79879412713835,-320.9578564201761
1776353563979,-27.933599681854247,31.955560364753005,-27.022155795244498,212.33880604956732,-59.04118654415489,-275.5250226651387
1776353563996,-32.654816887122394,33.01903364562988,-25.853187346129864,228.86137516128667,-64.14515468447364,-304.48065342492396
1776353564013,-37.28325877805948,36.28352907055765,-24.610147260240836,236.65214847579168,-84.71175586035247,-359.07645915910024
1776353564030,-32.43395119945109,39.21388168046325,-23.401075312264076,246.8722151723951,-95.17299653654906,-390.58535123441965
1776353564046,-29.816938562774656,39.16794264384806,-22.761973471932297,264.26111181806056,-86.79418491564098,-389.6213929764774
1776353564063,-23.94246434533,36.68141399765015,-18.718316468999532,269.93191735759865,-69.04769371597955,-383.2067798363249
1776353564079,-17.39716767283976,33.1652290365139,-13.144316423068009,252.50228546372327,-34.38079879110761,-371.4937157494267
1776353564097,-13.63737324077189,31.559619667063465,-11.160270558034442,245.28192856756272,-34.37508192277231,-350.20346969136335
1776353564113,-5.8753726275891065,28.045379483319444,-8.303988744653015,247.34300645150574,-66.88009220174098,-318.9039638952399
1776353564130,0.40327275761067866,24.324190895434466,-7.15492187764272,263.4871967435847,-127.53087429551191,-274.2766553301571
1776353564146,3.2172084808349606,22.709602173779903,-6.323234760771691,257.21582633070574,-126.14545238464486,-238.994821398836
1776353564163,6.779479522374272,19.473088980755207,-1.7269667082086204,205.81945878868186,-71.16189681128695,-204.1638345942491
1776353564180,8.079681830486654,16.5858331697762,-0.9962864351801574,134.7729238724764,28.603981885461735,-176.5112400035622
1776353564197,9.553462589916586,15.508291908319293,-1.3723258795589208,107.87455975107734,77.055106970579,-167.14330770780956
1776353564213,15.538516073930262,15.235052474810182,-1.6891089789792895,101.00015193637793,95.53413595872432,-134.88309482378872
1776353564230,19.659088522228597,15.93760160898417,-1.827823037664592,112.43308947484638,91.98864623227323,-51.80898609997353
1776353564246,20.21364548176229,15.620818509563803,-1.686414917589724,124.67110141078425,89.56446183167397,13.614667299005191
1776353564263,19.375825122833252,14.608371943829953,-0.011971300561726093,123.63075431716459,104.41086837012632,71.16683503805687
1776353564280,17.21924739292562,15.010447308349608,1.2934687620736658,121.52515726021139,123.52495468692108,149.63350305345656
1776353564296,15.071947778972982,15.593734687805174,2.143409182385355,124.37786772933725,107.04307984227667,203.32947234561868
1776353564313,10.528050549638271,16.838570351874083,4.081666232929378,129.3006446113539,68.5548545862281,270.52436796620555
1776353564330,6.396108566063642,18.674324767059833,5.683985255597531,125.15709669098733,42.49190797768621,317.6037144433229
1776353564346,3.669861647686362,19.63829079500213,6.196792300768942,106.49748433137606,43.18460527274139,351.3112717332261
1776353564364,-1.1620856307983398,21.335629915253445,6.058228391144052,70.79500636983055,80.07628405558324,379.0858808232461
1776353564380,-5.3883004737854,24.661026748932898,5.012111976324767,51.71596575366713,100.3714944949808,392.47119378501685
1776353564396,-7.975086314502358,26.34968593831807,5.599289385488816,32.584500020529276,95.55694879055216,402.21951297602584
1776353564413,-12.222400059619545,30.705787682673332,6.350170789823774,4.394603903028265,73.11973638592525,424.27829191949905
1776353564430,-17.14831975326538,36.30103579341471,4.798878299635556,-5.734482539396489,54.87431352777272,446.47708974095747
1776353564447,-20.54434458607137,38.82766556385457,3.5492551683946743,-1.9400900474195575,32.706067142471746,462.8796797497164
1776353564463,-27.073034407153724,43.6527306816101,0.5494697662046936,31.031875078780317,-2.3001494459323033,502.16638144049614
1776353564480,-32.60588422164917,44.91522372905314,-0.1970727150184568,65.53955146391009,-20.086845273482552,531.9320726358449
1776353564496,-35.42550500477254,43.21324679293334,2.5456349334274417,50.41623539612706,-23.343448733893368,528.3544741901055
1776353564513,-39.455545826013385,34.47620287747681,7.87557699747486,-26.06645732577528,-50.07523478671959,448.3425236863147
1776353564530,-39.091775934490556,22.601264256396888,6.973261890039624,-77.0765674249512,-85.61959045388473,351.98254272485497
1776353564547,-37.24674413400218,18.008586921802163,5.049521614726726,-103.0772124629788,-101.6204697167985,257.42510332687493
1776353564563,-33.201291662487385,10.997916132575273,-0.08604162216186523,-95.09004388907925,-71.03161778305812,134.546885592084
1776353564580,-28.44610836513359,6.0344362313419575,-1.2557590630128979,-100.90368917472985,-13.251661527639232,48.48055295515628
1776353564596,-24.922141517949477,4.6865001121521,-0.5579986974854022,-124.59621521672422,43.97815031089181,-11.884979948307407
1776353564613,-17.25560995169375,3.226487765833735,-1.7148469390869139,-123.5255420831897,58.59876104066731,-40.09861310760833
1776353564630,-11.76061761069931,0.5867296288639307,-3.1280240306027234,-95.21248186014091,6.481504170902192,-35.101151522112175
1776353564646,-10.656291437365114,-1.3018453991442918,-3.710264239092916,-55.30283618120474,-63.49020101477195,-27.542338262009974
1776353564663,-10.65225180658549,-5.078999546813964,-4.077923539269715,-22.204661538860897,-116.62599917234465,-26.08963728027101
1776353564680,-11.155034374414011,-8.096740517315268,-4.291456984356791,-14.643382580468321,-116.73223593469503,-36.17871973161382
1776353564697,-11.405378085504099,-9.236381676593423,-4.9802385822020465,-0.33392010447654846,-105.49009290050171,-54.81699799535256
1776353564713,-12.13755415004827,-10.114006807166337,-5.438728200121969,23.914433765486216,-66.93882499841392,-75.62586939618633
1776353564730,-13.116034221837669,-8.872761714935303,-1.1558001207880675,1.780498088428861,-28.747381707086152,-89.6777473492478
1776353564747,-14.317325489342958,-8.350822830411792,-0.7032954224966466,-21.94993475640715,-27.79543433679938,-119.62266270841769
1776353564762,-15.090353642626852,-5.813571128192543,-4.553622358404844,-16.12237466786996,-62.60032298856767,-157.96197618018167
1776353564780,-14.657452054949848,-1.7362445319026707,-9.927556599316,12.447479323630162,-87.02251813959451,-173.5075686934007
1776353564797,-14.751723306927085,0.3540443240612745,-11.79039498239085,40.495914966344216,-82.51284475895856,-179.48290504727302
1776353564813,-16.957082603399453,4.185812105450034,-13.977499075726419,85.06558014992665,-62.25795292623161,-196.34798082511182
1776353564830,-20.34652484294474,9.960479210230707,-14.652215177209674,122.8798843009484,-73.95541686106549,-213.83591521374242
1776353564847,-22.693591242438554,13.671342145869135,-14.42536398538798,151.24559162211966,-111.41001592963768,-237.57698341016808
1776353564863,-29.452122377069294,22.03728071234822,-14.87607215565145,175.27042685780268,-149.18917192719056,-294.49002644291954
1776353564880,-33.262642495507,29.982139061847327,-14.44915738729909,166.62661755747644,-132.28569682583793,-344.56457479562755
1776353564897,-33.19171602489054,33.49368412475586,-14.09541263070628,146.59483385398792,-90.68170319496963,-379.7268804164735
1776353564913,-30.6501224940747,38.256350361743564,-15.058181338622793,143.1346736808378,-56.192236094167114,-402.33376838046183
1776353564930,-27.660809745678304,39.437738074383134,-15.003264995630085,152.46178876611046,-68.2636767917213,-413.63923409845034
1776353564947,-25.929203979492186,39.41020533981323,-14.82803877710551,169.14321441754598,-90.26890705210157,-416.66582752346636
1776353564963,-21.3549326546818,37.47943163076192,-13.797933439758047,187.57266306250614,-105.95858923605122,-408.2982174127971
1776353564980,-16.540640859875083,34.05377826015055,-11.209951740320026,187.9866681488573,-99.97477661741894,-395.8792122940431
1776353564997,-14.029422009056805,32.00314395370483,-9.789740804644673,181.97938017004768,-77.56683157338554,-378.231806648671
1776353565013,-8.301297459742427,27.585392101122437,-8.445845996734873,186.80391161104288,-57.90923295338702,-344.2144866195294
1776353565030,-4.182819937896729,23.650223274230957,-7.195473083739727,197.6183003880858,-71.21386772068158,-317.7828293241173
1776353565047,-2.143259398651123,22.24153490896914,-6.170456813159585,197.19018413090942,-96.29650118331364,-296.3576187280545
1776353565063,2.1755822901070117,19.67869236349538,-4.1717470474794505,171.09394376525827,-102.17613975672488,-280.98075920809146
1776353565080,7.416788414874673,18.296338572527468,-3.6088105282656846,142.46762374611603,-51.04772395093517,-264.92506084689916
1776353565097,12.658442283409833,17.543811063219607,-2.8630161266051233,112.36601018700769,28.086530169036152,-216.94751717316845
1776353565113,14.802450454601644,16.934038704681395,-2.037315682928264,95.18798880177724,57.24598060384376,-174.11302398218731
1776353565130,19.285891753929853,15.656133276312053,-0.7058408691957593,86.65533400000379,56.47526888808869,-119.24506253034271
1776353565147,20.98458016989827,15.218893074908852,-0.2680008022032678,87.27548785588426,33.358930774287415,-34.19428340034749
1776353565163,20.533122350311277,15.06656140975952,-0.20335691898763178,89.00821122566812,18.428099682599107,29.148030358515346
1776353565180,17.730111341205237,14.60403186879903,-0.1640026675902307,92.49429196671845,13.879025501962303,82.73135617088562
1776353565197,14.96420928878784,14.226944522802532,0.9855125277094542,95.79592344923256,31.74547275269574,149.57076093574082
1776353565213,13.717129499053954,14.335282294055073,2.249502827972919,92.9629863777539,50.77117983672511,198.1774743150564
1776353565230,11.080815365058182,14.813972696221619,4.878335227911174,93.44760195974463,50.96597683185388,241.05756584893655
1776353565247,7.530062327355146,17.021876270349324,8.265831594085693,70.0653577513656,28.236024226947514,288.9009099658548
1776353565263,5.785438674163818,18.793136590620247,8.90254047486633,26.63836101781149,29.89814563882824,327.1811696220548
1776353565280,1.7006313667297361,23.248296816662698,5.912033109857886,0.9964857532039559,30.057722763501832,370.8392197023994
1776353565297,-4.4958623894840475,28.67505371622294,0.5922656356811523,41.769622303146534,-5.0951324368536905,419.27550620154483
1776353565313,-8.538023564368485,32.22894797456115,-1.4962261077329515,113.42636973489549,-28.238998774331055,449.00497007353584
1776353565330,-20.60315391791463,39.66309347468913,-1.0046668716430665,164.66027439732144,-34.15249630300535,484.427779109326
1776353565347,-31.3386039399296,40.96583903754353,2.3472154525756834,171.0210110053009,44.214871007146115,470.84887126572045
1776353565363,-32.06658971317708,41.32152645263672,5.80593990266174,85.75842770914358,150.0765501041586,463.67864795806776
1776353565380,-31.651495584869384,42.13749913689494,9.223213348266855,-27.06519490697122,216.87275392251348,475.1340226679597
1776353565397,-32.29179547587931,37.481974593243,3.593247888681106,-91.86641999707585,154.0321858600798,468.81254598732954
1776353565413,-32.314540391650795,33.80597663475871,0.9097966308593749,-81.14037971694704,67.91603382334598,441.2520496674111
1776353565430,-31.283986214557288,24.15195874415934,0.05671301715113222,-81.3537411662399,19.18487098225818,393.9303134370283
1776353565447,-29.768156850079446,14.460232177412509,-0.7838018415588885,-107.96551738025441,40.00738568595905,299.3398705649788
1776353565463,-28.78548794829808,10.203789953944087,-1.7476171359188855,-115.78303088536,63.1163506105513,211.416184096482
1776353565480,-25.47161240639053,4.478205152240395,-2.7395648112423716,-112.37526509333306,77.31177181920975,127.2827881644787
1776353565497,-21.31288324591629,1.4395155017346142,-2.410362667492777,-99.80831807715656,74.5637408293035,42.95558561477628
1776353565513,-19.187431197036616,0.2765302917480469,-2.0676922626219687,-86.10633705489651,43.46208512286775,4.118825196892068
1776353565530,-14.971092289767228,-1.548449339184165,-1.6986860778808592,-70.33342218572108,-0.8125441698221639,-12.244848101523393
1776353565546,-12.830526989038288,-4.112190988922119,-2.184709014892578,-46.32413929077819,-59.70596202588306,-21.382212847690276
1776353565563,-12.02906765450742,-5.167286902076006,-2.8613699668332933,-18.83834645735946,-90.38350396599604,-13.805472048564082
1776353565579,-11.124658561905287,-5.211278604015708,-2.6913816489621993,-3.9768503234832444,-88.82937638262968,12.211708877444137
1776353565597,-12.081889692102,-5.232527143749595,-2.930951452581584,3.3419033450775766,-117.34293680876421,45.078531352221304
1776353565613,-14.061744955311621,-5.0915667674422265,-4.0126822746828195,24.88207691048568,-182.996572922381,51.0758472548427
1776353565630,-19.78777759211436,-4.913050275200605,-6.793995538982749,62.776910699369175,-260.26045145513064,14.58593727445393
1776353565646,-24.754998104648106,-3.1069255668640134,-7.6258314166747025,70.15393164452232,-273.0865631691741,-39.50533604611185
1776353565663,-26.094403565249404,-0.8623626795113086,-8.12457340387553,59.215404179314405,-237.95089528609125,-95.15523121451785
1776353565679,-26.516532012640685,5.418227410015463,-10.596286612126976,42.98346644696827,-184.62758111504505,-148.975100138224
1776353565697,-25.94102511272719,12.064382750049234,-15.119384068408607,51.260590211513204,-163.24519580507823,-232.4762801002726
1776353565713,-25.26705787511617,16.062100387573242,-17.481412913104144,83.87760534758633,-185.79699146322125,-295.6132647123065
1776353565731,-23.193978366497902,25.217527536010742,-19.9128757979013,123.75879304334563,-233.69519565955306,-355.51426962012846
1776353565747,-21.86534652110636,34.14984443272054,-21.408053784820808,140.29260464643883,-270.7693258705989,-379.8418461605831
1776353565763,-21.3995252451241,37.67411103003621,-22.43621200668849,143.9591594759284,-294.3788856047451,-393.3170717325879
1776353565780,-21.17521701578349,41.539397634667154,-25.236531292492522,142.64509938150962,-286.9548524675348,-408.926704099465
1776353565797,-21.04787687628865,42.293572911182046,-26.024522329369557,133.44513509782595,-237.12742035899785,-427.41692776765996
1776353565813,-20.647895561438798,41.62409602552652,-25.709087356622515,125.41702637004134,-212.36358597587613,-434.1382437223027
1776353565829,-20.40967249625325,39.91029421157837,-25.528622506792097,125.98360422207223,-219.57413472038854,-439.6367918909731
1776353565846,-20.228161498370767,37.639842849731444,-24.658930215045064,133.44670604133503,-223.49433545489572,-454.78240852639624
1776353565862,-19.234117727550863,36.10216654123515,-22.98268933933675,122.57193839202921,-171.32239993261686,-469.46152324150745
1776353565880,-14.975432693591713,33.281049966596065,-20.90422375376597,131.47764446589042,-67.13185297454764,-479.2432830386928
1776353565897,-7.633015921351313,31.056236758721617,-18.289156259807942,161.46283062040672,-12.503830945603704,-467.59710016414743
1776353565913,-3.519027527618408,29.668348276110738,-15.79634356490448,192.19030807354164,-11.477785414332404,-440.89379258506557
1776353565930,5.569661834064125,27.086500384986305,-8.987233751159161,204.07049322905172,-81.20666670284201,-395.3507195768242
1776353565946,11.763162253680825,24.63349167627543,-6.310815424181521,192.77960313475202,-167.31255979544247,-319.9449120455065
1776353565964,12.53858314732015,23.173327646526694,-6.7731959120601415,172.601844628322,-134.3206697267732,-287.4341131812162
1776353565980,14.6779531373173,20.14840465556681,-5.730670434404909,119.26683717341672,24.050219633733363,-269.55144850007224
1776353565996,21.943906263080237,19.878756524547935,-1.9074302428647876,75.12025781268697,120.67197101022842,-228.42030886544393
1776353566013,26.280849425718188,20.46638193320781,-0.8580205586537718,69.51468740991166,125.91419583972656,-138.41372888879505
1776353566030,30.539835488450525,20.481945413042602,0.00957768342345953,122.50396434940923,5.748609931921014,11.94301265059042
1776353566046,25.355343184551597,18.739265879656372,0.8459019585758447,157.333981267134,-54.555258316168505,97.20418551268413
1776353566063,21.260360520061848,17.830967378400263,1.9041396768867969,151.65623625539916,-48.73309578462291,154.62624839333083
1776353566080,14.010719062152504,16.43754025862366,3.0358482896000143,112.95849494656045,10.412385186837135,206.69163296455747
1776353566097,9.076418493652342,16.089184501592815,2.8218665162235497,87.37634242916867,40.577959198654405,239.4315710151233
1776353566113,7.049575981682539,16.542735713262484,2.2804782503426075,79.65619327068161,43.06817445305477,272.9267367425958
1776353566129,2.689136792644858,18.649034989111126,0.5585977593570948,98.3496014063061,35.967424414544894,315.3303816007325
1776353566147,-4.910058107647299,20.77134468484446,-0.9302969825744628,118.82477366995515,66.56718757548435,324.6409403074571
1776353566164,-9.516203995624185,22.230761403357235,-0.3525456099361181,114.37820440706096,127.17928347779633,319.4801859743788
1776353566180,-16.700153960961103,27.3076652930662,2.0332763444095847,69.54702835563167,190.42156228607516,357.54748033225786
1776353566196,-22.48469773211181,30.518440818244216,0.6904292189218103,60.29475165309484,218.1714051101647,385.25009922842594
1776353566213,-23.48696806400716,32.08155288903117,2.216283060742542,29.040980803653735,219.61745178010477,417.7433308461709
1776353566230,-25.2119926982373,35.73809912807047,4.732888938361406,-9.427332743416956,155.17061447018085,465.21527659678054
1776353566247,-27.40074192843139,36.40593233817219,1.3213011919762008,7.115585636273972,71.1735013026868,489.62008891636975
1776353566263,-28.790275547900794,35.493290839275716,0.300472979636467,42.477209410592344,12.573310191162014,494.81600506329517
1776353566280,-31.516971379089355,31.078233340343832,1.4053973791587167,70.39406060517246,-32.30331820787278,470.7481123150844
1776353566297,-33.83201533137858,21.976974419945478,6.74895595369162,34.39055913143156,-35.240057079262726,413.69928512163307
1776353566314,-34.156729954450576,15.453375200000405,9.563789045880734,-64.63813724819765,-18.912221783422318,311.62011356055484
1776353566330,-30.52263067114949,5.473893767657875,7.0802540650734676,-167.39260961251503,27.40044278955025,173.33901328506315
1776353566347,-24.574534825720264,0.9840186358898878,-2.919877648848854,-149.71849792748822,39.20700362844945,104.885477724983
1776353566363,-21.81312226674184,-0.7288841833919286,-6.5574184143733225,-76.01188436731877,14.05243205215788,72.19069405502012
1776353566380,-19.274071625341847,-3.8706758964538572,-6.6160765011776235,-1.713454765805014,-27.97012496255892,44.120105547506775
1776353566397,-20.347871800574286,-6.960392554363608,-3.2834967702567575,22.193893745634373,-56.6109027846268,12.975908007825598
1776353566414,-22.019771432207897,-9.032424453625083,-0.7924795804679393,33.079869735368206,-109.32624132708268,-43.41787672346484
1776353566431,-22.306477665533496,-9.350556337305903,-0.3642176352903247,30.188684810647658,-148.04974610947068,-91.18137934408026
1776353566447,-21.516392067530006,-8.03194626584351,-1.4122788275018334,17.933716930095244,-150.77734117338025,-131.22955833485722
1776353566463,-20.472369337054342,-6.912360052600502,-2.65950825483948,9.935173529906685,-138.21805762945252,-158.76112197345148
1776353566480,-18.48368631373942,-4.401889389801025,-6.337002150969952,33.95630936438049,-157.2672639793213,-180.15611581262615
1776353566496,-18.181418208014218,0.06988134547770022,-7.7195035337150095,56.493587455442665,-196.49485721302378,-195.1002145467772
1776353566514,-20.46668442328572,6.283882116809487,-8.491633861376345,64.96010553548288,-245.76124392275753,-226.6324385483014
1776353566530,-21.412244149182737,10.059837994605303,-9.95793252142258,64.42784938403129,-251.86117658746917,-240.3370901745269
1776353566547,-22.716036590741574,17.580922065734864,-13.58440021386668,58.17247527418848,-247.9599091373413,-247.3799167937805
1776353566563,-24.013244685474035,20.92173120727539,-15.621865096007287,47.36891576207461,-244.77083917234899,-269.44487022826337
1776353566580,-24.667161013904213,27.06405439736247,-23.273584256523847,69.416073138675,-242.2949775604894,-316.9737251150376
1776353566596,-21.390696041980384,33.12886647774577,-31.116540713036805,131.9998943902079,-231.8298436764659,-337.55685534870787
1776353566614,-17.502361739239095,35.971381229722496,-28.36919401574656,201.29563325608564,-215.76564855994613,-349.2357958105126
1776353566631,-15.191659031024574,36.89375034190714,-26.244489972222595,224.37798434857694,-194.93654955388536,-328.71066754327416
1776353566647,-11.210101085662842,35.5464139421761,-23.366808922057597,228.774973268286,-164.23755398958937,-297.08424157271713
1776353566663,-11.370812456622719,31.5186179772526,-20.927565612517295,217.92398833767015,-121.2621949771659,-271.68588261570125
1776353566680,-11.490073042297363,28.770821490368245,-19.825185385619104,202.04230953615144,-98.41825846784307,-272.9725809723049
1776353566696,-9.976490433833002,24.82443159676045,-18.729088622904566,189.89589726717261,-70.24575670772397,-274.77831906431624
1776353566714,-6.903233912336826,21.976977050293982,-17.113602294823153,183.94349668853323,-28.78259816244674,-267.6516177220549
1776353566731,-5.270984592437744,20.61647049560547,-16.136468888402355,192.95543952474483,-26.388961782910354,-260.5389046072137
1776353566747,-1.379061909815669,18.28182489400655,-14.007276228222251,213.46459880970386,-49.05961639298996,-249.30321610178606
1776353566764,3.4157764119803904,16.786496173504737,-11.293148932836203,239.59664302698417,-81.88898894054795,-223.93720492067933
1776353566780,5.642085849761963,16.285359984643755,-9.805601733056083,251.96423048166633,-85.59313030104009,-189.66272826928673
1776353566797,8.405890637639164,15.51712052694112,-6.034285278563946,253.3098323896722,-67.64789425690962,-147.00310158143628
1776353566814,10.286536626213788,13.487436069543659,-0.5458771017327905,226.2808477305858,-82.37547599437127,-112.86388316617743
1776353566831,11.367221154132485,12.825588692385889,1.2838910786502062,195.0826063190969,-103.01773517568634,-96.73726695083289
1776353566847,13.893103321075438,12.280758432824909,1.3645460393376647,173.79470984610805,-120.6470544801362,-81.50655298854059
1776353566864,15.61588105316162,12.568511837115883,0.1788173748843372,171.83727325263078,-130.66408697347185,-47.88613866716299
1776353566880,16.265010147315262,12.596942799167149,0.2952358690008521,175.592962050789,-121.67841304480814,-20.925321003540613
1776353566898,17.392230800959467,13.577817620605975,2.8347350578859447,159.49195221464285,-99.00759451018845,17.934801222625985
1776353566914,16.15442562004924,15.233407776343077,4.148105767390132,129.04456715899178,-72.25190621036177,86.55123508686363
1776353566930,14.129979063305258,15.646108652838691,4.0224098879709835,125.29270326676877,-76.36135782639164,128.4654354192664
1776353566946,10.062529717907308,16.795325815039874,5.042488848279416,125.86163070387414,-89.44688695530137,165.52120608182324
1776353566963,6.44234658562541,18.769194569452107,6.407184379090368,118.12939211055615,-95.21154612422461,218.55169638277266
1776353566980,4.343379333165288,19.58801241400838,6.557420825526118,111.85063143299521,-77.57736372508569,254.38640680664963
1776353566996,-0.29358897857666016,22.425290726636348,5.635352742114663,113.4749733610293,-51.25065911646001,286.58859040348204
1776353567013,-5.433492199164629,26.920404928101597,4.272005411042273,143.77292753801882,-17.51702928694757,336.2404046880796
1776353567030,-8.54864724971354,29.133245520240067,4.065356172510981,188.3135883232908,12.162048279536267,370.93467842623954
1776353567047,-15.902586701965332,32.5677283862561,7.538294441388547,207.97447909446925,39.95749798426128,390.4792920569877
1776353567063,-21.05580591572225,33.259052362060544,13.104963231116532,164.70606398551723,66.33821231374884,395.8406900271242
1776353567080,-22.71543599449992,32.912342618671055,13.260585754504799,129.89782171086645,67.32910200758845,396.78153492491515
1776353567097,-26.25272106334269,30.73406918978393,9.870096782385557,124.25115405985518,44.25234142493281,384.37728301476835
1776353567113,-29.055581558062133,26.509648828998206,7.10195060430318,145.92518844738154,3.4958385200533275,338.21159728254526
1776353567130,-30.250887467547503,23.642892200690508,7.12275096187815,150.52693277802925,-3.2343562536236137,282.14098978202315
1776353567147,-29.63123785811737,17.456422994884846,10.208128202344104,92.32113984106945,45.57948816180131,227.01121351891362
1776353567163,-25.57845350934453,11.841423889490962,10.773010083471982,-43.551389846265664,148.29030537203855,170.51579557277338
1776353567180,-23.564330778216195,9.457096557617186,8.668207622052357,-113.20120571871685,176.3579705585871,133.4469655885235
1776353567196,-19.509450881936214,5.3010617507934565,2.7730848035283384,-138.84556076887992,150.6992038092753,87.6550141473052
1776353567213,-15.26902114244541,2.1779753227233885,-1.273864336284995,-127.13233275744166,103.495035625076,62.38325274655549
1776353567230,-13.306971859034057,0.9002192396968602,-2.7112834502622483,-107.23722113924512,57.161371635500224,50.68250007563625
1776353567247,-11.362880805106926,-1.5569769290328024,-4.815337504467368,-78.3067254756055,24.48255182517495,39.143745831451376
1776353567263,-11.110891244772262,-4.1105443907588715,-6.071694533373415,-52.352047610692075,1.4629498940319803,25.90396541787338
1776353567280,-11.031732724054484,-5.169678181126714,-6.96547964836955,-9.510375037119617,-38.22653680328329,10.909003118746885
1776353567297,-11.376048996436175,-7.164200139728188,-7.821856385339051,52.013953246776445,-102.97553143680483,-17.42919646931579
1776353567313,-12.746131133922608,-8.005460994499922,-5.457731445147097,76.15463532097203,-146.05253049426724,-43.90252304130685
1776353567330,-14.011915089836926,-8.520064713829756,-3.442562127575278,67.41753929696176,-182.0560695340486,-83.24658466073636
1776353567347,-16.767641159577572,-8.214803417637944,0.6929723275333642,8.430865346346396,-203.81229841804688,-154.22929145914802
1776353567363,-17.88797828251943,-4.746056462970376,-0.6748642777822912,-26.039655663472146,-195.3226328269095,-201.54019500950713
1776353567380,-17.593341694585977,-2.116026523810625,-3.5088510015189645,-23.694856844048648,-159.26441129263304,-231.07311335794185
1776353567397,-16.88570561253652,3.21706001227498,-6.877792597088217,-1.9814737367138415,-84.75597450503913,-249.60549295369412
1776353567413,-19.938611858312786,9.228153361952304,-5.071366567717492,-3.445295120195233,-4.352262279702886,-264.02926787687363
1776353567430,-22.9987002706781,12.71829732491374,-3.5299504881709813,-16.701887190641568,87.85298035020885,-293.1154918535895
1776353567447,-28.413037979778647,20.850503707885743,-1.644516534667462,-28.183274675987505,178.67169713992894,-341.6460896047945
1776353567463,-30.817863325279948,29.04151650009155,-0.9961366514459252,-18.60207655359038,181.68770377173146,-376.79407914914003
1776353567480,-30.493301700812577,32.73292946985066,-1.8288694779776036,24.405809527207982,118.21140902210966,-399.2579429519083
1776353567497,-28.42934847858846,36.79693481227457,-4.0194147978082295,101.85241611082296,-3.4922513900786014,-419.7877430685391
1776353567513,-26.51324071601033,37.435889718416334,-4.456207182378694,143.1568854560187,-52.296740153887896,-428.53653237640845
1776353567530,-25.61376849528849,37.08528764376342,-3.29621611270681,151.70698456093234,-52.18462601375672,-429.8050897505766
1776353567547,-21.787834826880694,34.143860389874874,0.2916446395758539,117.89991141482206,9.90253973982601,-411.80653041959584
1776353567563,-16.527024422454833,29.997103406745193,1.2485769694890827,94.9951930520753,75.3419179418214,-383.63000567805557
1776353567580,-13.645901415142417,27.52344432512298,0.9916486923769116,90.57056235679518,125.00485177438775,-349.8094497385237
1776353567597,-8.45183113555908,23.148190063465012,1.208623327426426,97.9296403949987,154.94446690676173,-301.47698211476245
1776353567613,-3.2574615807682274,19.89850974769015,2.3874687351720407,104.29431119194007,131.32807698344547,-260.1791448832508
1776353567630,-1.0494090996891259,18.351556674945726,3.0014316407352686,109.11560512326867,68.95332099221747,-219.34723583616073
1776353567646,1.7966987083435058,15.469985485474393,3.3268937211737035,106.56210475111355,18.392627095144647,-177.43241395654348
1776353567663,3.7674247808158396,13.051840712738036,3.303400178992003,98.31892702674358,16.575468926841094,-164.6691673036208
1776353567680,5.7843912109375,12.335676017926632,3.994277068616077,80.9415665705863,32.58020724663592,-158.1841075923688
1776353567697,12.28330197982788,12.176610660608112,6.203227302252501,48.72571576522471,32.465668389349396,-118.71256732227017
1776353567713,17.53632947529256,12.879308555603027,6.716933488220721,30.19211698070559,11.858322573750494,-57.167068013268015
1776353567730,18.025792323625087,12.767828540802002,5.8355677098147565,27.73097954914926,-18.89839577299492,3.7833882034503947
1776353567747,16.251389618241785,11.951556289075315,3.5594300459597257,42.105903251837525,-39.465987326303406,60.88166980847404
1776353567763,15.055637864685057,12.082788613703102,3.2302276099491865,50.108668562706804,-41.06409108264089,98.49820583207807
1776353567780,14.610166718292236,12.593202333997189,4.190601604748889,41.85288230912899,-35.77326945719811,141.87734513766517
1776353567797,12.179153623089194,13.39391227493286,5.3676508132601155,25.353324104723416,-31.675675049567378,196.6677293009168
1776353567813,8.188168508690595,14.273183199951424,5.174618815866671,18.301799239561817,-27.545500639595687,231.3565388877407
1776353567830,5.841401384404302,14.848839061615243,5.636998646158166,0.625823553221823,-16.53384916913362,254.98063326444074
1776353567847,1.3235440207332372,17.14996642449386,6.561160486978478,-47.17795733325939,3.92416010979165,281.2719165120307
1776353567863,-2.0207067856937644,21.515793078723547,5.524022401450015,-87.67619456392141,25.839001781130097,311.29707293356995
1776353567880,-3.863044378662109,23.600694542560724,4.299537999481707,-119.17949271431058,30.15550033656515,343.0034121174161
1776353567897,-9.164106129455567,29.490280550549922,0.6895304069185629,-123.16014062297236,7.837998949973765,405.85208078420544
1776353567913,-16.091878270721434,34.326418558722736,-4.3240773426556025,-88.90518465222765,-3.1114333391308944,452.43864277308467
1776353567930,-20.191798976135253,36.02151158054769,-6.0877064693617635,-41.14516201299436,7.9126127902406305,479.8083309283497
1776353567947,-27.0884459112972,38.112100296241046,-5.048323545782268,-16.029762425366464,56.83505593280828,474.58263515664294
1776353567963,-29.435362673187253,36.549134940448404,-2.607434514861554,-31.72735567592228,85.3679799452398,449.880217834538
1776353567980,-28.304251441845295,33.43218365413248,-2.952648539800569,-51.10900099307394,95.89393666382225,422.4028585771969
1776353567997,-28.189778090447184,31.560217231097816,-3.094355131365359,-59.09609443489262,110.21622863631369,400.9737411129289
1776353568013,-27.074529321886597,26.138397349548338,-0.08918329945476725,-113.88841154167935,150.99634435892756,374.63046646537674
1776353568030,-25.58204430037811,18.652627168384193,0.04863276921119541,-223.99944160439648,192.65947376762983,307.433726693714
1776353568047,-24.522310352160034,15.117587248119712,-2.9058119698237626,-244.80045487259017,141.6803898027587,243.29945250058816
1776353568063,-21.163994195501505,9.009380847167968,-10.577133802563324,-195.8271925612767,56.92190861829417,191.53180953566073
1776353568080,-17.928230396072006,4.928313895305991,-13.437456233105063,-109.29449460782047,-7.780908813796214,163.04994801746423
1776353568097,-16.990601791967823,2.905962265014648,-13.125911034338175,-64.34927488781948,2.815339515968964,156.19571658157304
1776353568113,-17.75599758720975,-1.8740584268778562,-10.77016521543488,-39.10384045122558,33.87324743388396,139.1440127148528
1776353568130,-19.7292687045224,-5.616048322185874,-7.694513907756656,-26.337132599941004,67.22723656630687,93.12432910632793
1776353568147,-19.99502494266927,-6.994210068291426,-6.0588258455805475,-36.421027522609194,69.95861555501664,51.88160808632369
1776353568163,-18.7184671295166,-7.934085611072182,-6.156538762444257,-36.05344040185744,48.073726397622806,20.49671297274397
1776353568180,-16.779762189074606,-6.9460290979683394,-9.861566123797,6.214088177631029,7.401840145049675,-3.617310019347419
1776353568197,-16.159064531896263,-6.554724426048994,-10.819247372381389,44.65557188786826,-17.51076088083679,-22.88460857828296
1776353568213,-15.901987932354583,-5.707327260479331,-10.600028136742859,73.79044047185299,-23.966220259773255,-49.69541479716435
1776353568230,-15.925031392681225,-3.4247564217716455,-8.82308144596517,97.42301794350217,-22.18659398095892,-89.92584714065934
1776353568247,-16.012121500982715,-1.582269191199541,-7.852831515447795,108.0692679537469,-25.999905670049966,-119.73922671679314
1776353568263,-15.616778897050487,4.042310812488198,-7.307701724950968,120.36369725222906,-28.665088172871254,-140.9813609223429
1776353568280,-15.674089642632751,10.523414706531167,-7.592012806768342,141.79099788617788,-33.680595118154585,-166.50154313339516
1776353568297,-16.374393482097982,13.684359448352454,-7.594855702044069,153.00970654132888,-33.41471292923891,-188.7529743925977
1776353568313,-19.97632009606883,20.951210399737953,-7.892185821644123,159.81249299239155,-36.52975047381746,-223.5882915371184
1776353568330,-24.904784505761413,29.345431057849524,-9.470563540096766,167.36411406329773,-15.760227792792127,-288.2056240291042
1776353568346,-26.410736619347333,32.643446182802315,-9.44003699400574,159.4410126638129,19.368883108687495,-355.73177016405833
1776353568363,-26.83780321726054,38.923733489990234,-9.38616752971746,148.93715160719543,58.54972711261579,-428.12084706352147
1776353568380,-24.288726344951986,45.59861749638021,-10.004170906310527,155.9004201829967,62.71703043091567,-488.89024222241886
1776353568397,-22.533777697101232,47.885381110602616,-11.029338275799155,188.4434848609261,-0.1768391738207572,-483.9929965875197
1776353568414,-19.053356086730957,49.121835461425775,-11.250053887475282,221.86984326269987,-54.04299071332296,-463.9578660913379
1776353568430,-16.448165405273436,42.86399262575805,-8.990974837383627,226.34115830095703,-50.883198354207906,-433.69884399261747
1776353568447,-15.787365162548422,39.301270041058956,-7.261164137920737,207.40348894023452,-4.967215800304046,-424.4634446875197
1776353568463,-11.986570611572265,32.94182151887268,-4.771194411358237,195.9949146865355,38.416887345262374,-409.4875172718364
1776353568480,-6.461501952472329,27.69851871408671,-3.0994431021541353,216.42340943739669,46.55740391131246,-362.565210504116
1776353568497,-3.5151375344425437,24.93531242182562,-2.3229735762447117,262.26074065546055,-23.086094036156457,-325.0003721823398
1776353568513,1.3277338736385107,20.018817760058493,0.5629366653442383,298.59070809605515,-119.29172638275224,-302.70240001413276
1776353568530,5.717054873767495,17.97820931919515,5.048025147357583,267.55981997960987,-160.96083903716746,-270.31771376267767
1776353568547,7.636605470275878,17.474680536109208,6.052691580609232,205.5995403577858,-102.557762916221,-228.50761234341502
1776353568563,8.897751194763183,15.870414909417926,5.101445479638874,160.91768590199132,-7.296750000706213,-190.7228692511211
1776353568580,11.094879546245933,13.79314569402486,7.0337154185973105,129.90273944706888,29.927255905070833,-164.08198960105315
1776353568597,13.299941028815507,13.191602526910602,8.556429135761409,106.10493969939708,-10.846108175548467,-127.52269172888623
1776353568613,15.690399995312093,12.443714075580239,9.97484295888692,62.99111226192994,-61.60961770983565,-71.01999280109077
1776353568630,15.970220560777186,11.867458494457601,8.005462309674174,41.415712636207736,-63.182910804013076,-36.4736404697858
1776353568647,17.262343607330322,12.320861602893471,7.380575749438628,18.61448700731229,-41.28838424970036,17.271371288164307
1776353568663,18.483087763324377,13.460053557099402,7.871686364978179,-15.274686720168846,-16.87045455181019,102.53186283888832
1776353568680,17.35900891483724,14.265252041625976,8.452878891046344,-37.02026050906192,-23.87150773409998,169.76122359402706
1776353568697,15.783175894165039,14.754717520307004,8.634388792950286,-59.991259027514495,-44.32293826019406,233.673940110856
1776353568713,10.934618841663003,16.78395218811035,7.124396244867145,-85.44771557361052,-66.10226342887076,309.1384599482791
1776353568730,3.2374089728206394,18.808399475506693,3.8144118651792405,-88.39057087940222,-52.41614210586347,348.9300492225062
1776353568747,-1.7154466585457324,19.29292574421987,2.4108113611083475,-81.45244422993575,-22.523863599532273,371.0031442424797
1776353568763,-18.20655630253255,16.92565958110945,4.311358858722076,-142.5583286582938,13.00646285907765,327.44093537656875
1776353568780,-34.193090869250895,16.92970023708567,4.504242168359831,-226.66768232441865,5.454511377770374,324.02532169718546
1776353568797,-41.72120790775716,15.220689164545385,-1.1203365201536566,-246.68591493259385,-34.41450235956704,299.0450522796444
1776353568813,-49.85775495028197,7.969998928235471,-12.458078737551904,-189.28254627970549,-39.225455384492236,218.2379584734373
1776353568830,-46.916177766528726,3.1301202722296115,-15.060875308680814,-154.8183133127916,17.55647875204627,164.8147596159688
1776353568847,-42.96484603260457,1.9301760354191064,-13.630190142601077,-133.04928465428867,52.337704213435046,128.82985333224326
1776353568863,-37.093664426964516,-1.2158052382871507,-11.125106543134804,-107.8197679735555,55.743653175142775,66.33350631341071
1776353568880,-30.05082213745117,-2.435201486803591,-8.401701789380889,-96.9043811892556,56.53897747757198,25.274800834930364
1776353568897,-25.732130670818684,-2.337489008331299,-6.997801790906768,-84.72478786128886,55.86391914604836,3.236640951900983
1776353568913,-18.19488515396118,-2.487425302776694,-2.827252739306539,-86.43618738048393,41.68552559899075,-13.51722099011662
1776353568930,-12.655900782233475,-3.4757807988271114,-0.14245434119217096,-95.64912219340148,32.959190538017836,-31.057669288180872
1776353568947,-9.19283713389933,-3.4563284948602315,0.7206551198321394,-112.65588341538303,31.593644477635525,-39.39717658551012
1776353568963,-3.3426047927856444,-3.4449560369744896,-0.16639633952742441,-108.07760078453431,27.345382927103486,-39.59591801488456
1776353568980,1.0167869330257178,-3.4436095908015965,-1.943941745116934,-76.75638181703933,2.2220782492849422,-27.96876917000867
1776353568997,2.388964344024658,-3.794958684429526,-1.7913108732587424,-42.41314565127221,-48.99092859560172,-11.929098701477459
1776353569013,2.895785154393315,-4.656871282085776,-1.0519514959146268,-15.101549962445485,-104.9074367831646,4.666575632475825
1776353569030,1.923141898998618,-5.190030064281821,-2.0658965383116157,1.1813776933757316,-125.90508436737376,10.808283441698583
1776353569047,0.42108021697998044,-4.949712657165527,-3.3904878030754624,25.539458712437312,-108.50266394715172,7.477151518385528
1776353569063,-3.9941280885994432,-4.374504539269209,-5.812522642052918,80.63581998257986,-104.94254395549846,2.8474172859625173
1776353569080,-7.415740367126465,-3.479223048235476,-6.5007063470702615,117.17633483452926,-95.67063045909785,0.2109906799597763
1776353569097,-9.989058238983153,-3.527406648907065,-5.931185407964885,128.2296026476042,-68.55379590690676,-22.007854760568858
1776353569113,-15.695637895965575,-3.221547679083049,-4.729445666039735,135.42265244746307,-31.208599393365226,-78.45625880710459
1776353569130,-21.613954177746177,0.383521762958169,-4.832246188366041,154.82641391714722,2.527514704014392,-121.50507650405156
1776353569147,-24.513632247924804,3.074005294036865,-3.729418071569875,164.77939289644647,27.862211388767303,-153.39953275801818
1776353569163,-29.31580398134887,7.717710220557451,0.5873283984746783,151.08566957289298,32.94781827304976,-181.36994971116414
1776353569180,-34.92481816711425,8.06816075791046,5.294328643146157,101.38319577522142,37.26316252651508,-244.1038575395189
1776353569197,-35.05619939869344,8.687510946002602,4.707151124384254,72.24921511582879,56.555021591932345,-313.0455467195799
1776353569213,-30.310144104766845,11.568483932118768,4.71657750796983,64.18841027248733,69.91538728775963,-359.4737576027415
1776353569230,-23.282713319396972,12.73909921685867,7.822156708576053,58.441810123729596,44.91622215187971,-346.93295655070784
1776353569247,-20.482844115447996,12.316970440673828,9.682301902477594,43.51604020221626,-30.909659088866693,-308.82795954861035
1776353569263,-17.239149778747556,10.798448622241615,11.906964593682158,-4.557365603402376,-117.8561708833773,-266.7167287492202
1776353569280,-14.863653988105058,9.71686743774414,11.888558602164126,-61.86460233193057,-126.37874432593581,-248.3001071995213
1776353569297,-13.254750472480058,9.45859264139384,11.302877715168147,-127.48530327336958,-95.30769469717089,-230.07011373870384
1776353569313,-9.517251458850502,9.260772313745319,8.426393400507047,-191.9379735648447,-43.173898951217396,-202.1905929430324
1776353569330,-5.881657406947016,8.815449928173422,4.330662547998503,-201.2231922697485,-34.078030165579285,-177.55483826722678
1776353569347,-2.4634844552189112,8.263138117218016,1.9183545185916124,-181.9583568477824,-69.96859446139402,-136.78612213033767
1776353569363,-0.6938713221997023,7.8811127302974455,1.4260470944829284,-163.2702489389538,-106.00254150336025,-98.83483170532215
1776353569380,2.070534938701987,7.04808077468872,1.3823528045872226,-152.56036205621209,-124.86649946255997,-62.92696995543436
1776353569397,3.3587644849479195,7.286602530559897,2.2713502834480255,-175.37662263901802,-132.947897326249,-25.28321050534594
1776353569413,3.9163147810786962,7.735067013549804,1.5067019455725326,-187.1813888457128,-117.79039616167007,6.396009412400673
1776353569430,5.317970215496421,8.80363031104207,-0.4599854094356298,-183.57480307713595,-117.75825329143599,45.492215419681465
1776353569447,5.1222436452567575,9.475651035961508,-0.6567583651893771,-179.68790634502176,-133.14602745369274,92.25610960998176
1776353569463,4.973953364452719,9.913640886688231,-0.9843148240911773,-178.50979433584294,-135.1062917454864,117.92243737870477
1776353569480,5.009269007983804,10.504859643664956,-2.5728679543984123,-169.08757569656703,-132.8849229821015,137.6198696619428
