ts,ax,ay,az,gx,gy,gz
1776353281671,-1.5887012700736522,0.7966682643294334,-9.374047687530517,0.8612710595261522,5.8892460882525155,-1.20697318696012
1776353281687,-1.624464657372236,0.893184445689246,-9.635165306091308,0.2555107601044186,1.6270725095982166,-0.7004715444345386
1776353281704,-1.692101146532595,0.905604512931779,-9.62768401042521,-1.608703356155702,-4.329435360609881,-0.9810561424254856
1776353281720,-1.608902492711693,0.8871989415388554,-9.70504606704712,-1.18446664642787,-5.849753080697855,-0.5062725643841213
1776353281737,-1.6368848707452415,1.044917195097357,-9.541941663470864,-0.04119292424519979,-0.8706910643303635,-0.871391478885407
1776353281754,-1.634490522954613,0.9003672698654234,-9.547477670288085,1.208039550244288,1.743781659493517,-0.44991758067684523
1776353281771,-1.786073269432783,0.7064368623275309,-9.60838017501831,0.3464520608604938,-0.21045717815257484,-1.0384643092862658
1776353281787,-1.61234430372864,0.7805074761886149,-9.71013433009684,-1.3897595078768277,-3.3753324253097348,-0.4552577213907374
1776353281804,-1.5839130128838121,0.8589176536239683,-9.658958269611,-1.1201151653889485,-2.039758515665911,-0.10367330697750791
1776353281821,-1.635986752861738,0.9458569552779197,-9.556156651306152,-0.2511431476148863,0.19579281536541035,-0.12077023096540186
1776353281837,-1.7121525854364037,0.9834160668868571,-9.53116775600016,0.15222293192819325,0.648566855858349,0.08882447572190019
1776353281854,-1.7184372186638415,0.9799743289351462,-9.57695627822876,-0.1411331593153255,-1.0988959020718345,0.7103575495670444
1776353281871,-1.7259189527213572,0.9380758729476482,-9.619154082489013,-0.4790085302906931,-2.142093532452919,1.0085448790704366
1776353281887,-1.7724563936211168,0.8997686463851481,-9.611223874011635,-0.7044665114079085,-1.0330432735193913,0.5364410297003916
1776353281904,-1.7741024072624743,0.9036592971481382,-9.613019525256753,0.1282867474252951,0.4191412285244438,-0.2913098359372917
1776353281921,-1.7157437417961656,0.8349754178266972,-9.545682019042967,0.3109448422125065,0.9630658510384951,-0.6957977206906929
1776353281937,-1.6424213159538805,0.7858945029892027,-9.58967547454834,0.12749743368933553,-0.8861648045341745,-1.2280919184303876
1776353281954,-1.64915500812307,0.8116320977706462,-9.613618075671791,0.10333414539653447,-1.8152171139187994,-1.4359217682691818
1776353281970,-1.6724984743095934,0.8319828849472105,-9.597157354736327,-0.49873187545786857,-1.1239787045816487,-1.6447535214818525
1776353281987,-1.69225049187541,0.8373696925520896,-9.651475804901123,-0.37084384032537293,-0.4714906264486247,-1.478645455301258
1776353282004,-1.7049699804559348,0.8367713613327592,-9.621997196960448,-0.12240923624236692,-0.8003300840388886,-1.1921703527597038
1776353282021,-1.724422722814232,0.8267456418808549,-9.553463174438477,-0.013992069401594247,-0.7117748671806751,-0.6398848850104694
1776353282037,-1.7155942503228783,0.797865511289984,-9.565734042468666,0.07486986563903524,-0.1731826213764203,-0.2163579546673634
1776353282054,-1.7199335947014391,0.7878397187728434,-9.592818448749185,-0.08722207599001819,0.3572695330410602,0.15033187666259884
1776353282070,-1.707812948796898,0.7450434371627866,-9.630078212085365,-0.07374613943800946,0.7034487064998708,0.10347053573652316
1776353282087,-1.6162347352959214,0.7845476184248924,-9.579799977222084,-0.08151286493710733,0.6298860750349525,0.12333747495882752
1776353282104,-1.588701562334597,0.8113328956283629,-9.520543486133217,0.5521892047706196,0.24423406442387463,-0.149958484094496
1776353282121,-1.603665176580101,0.8092379691757261,-9.488071541595458,1.2069966657353917,0.4973550587315821,-0.06543790800377654
1776353282137,-1.6879110013663767,0.8517349025130272,-9.641300447845458,1.0101021622011994,0.48626752727453576,0.5693506953905113
1776353282154,-1.6971886789299546,0.8672972133040427,-9.74185691757202,0.0491647155019567,-0.3606868421014615,1.159972734290558
1776353282170,-1.6421218946158884,0.9491489825606345,-9.78076269454956,-0.8237027779352607,-3.2766415278883394,1.2882865890291215
1776353282187,-1.6238662530876695,0.9455577531356364,-9.605836335754393,-0.7888517376952706,-1.7419889482798,1.2064995560298617
1776353282204,-1.6716007948175071,0.9199697959579527,-9.511115732574462,-0.0682461296088567,1.0949294831547614,1.2748556623565261
1776353282221,-1.6958419404961167,0.9175755212325603,-9.432256715393066,0.3315598472314859,0.21209615674911345,1.5513372376469996
1776353282237,-1.7381895284906028,0.9623172378219663,-9.558700490570068,-0.127953775703257,-2.6309920699400853,1.8298025560045386
1776353282254,-1.791160947960615,0.9886533830184489,-9.595062428283692,-0.18325605650470483,-2.738656982157231,1.8604227209405289
1776353282270,-1.8794474264398215,1.016186775175482,-9.615264089313149,0.05991804793734842,0.6814813773860817,1.4793231381329701
1776353282287,-1.8520634526908397,0.9961352632064372,-9.567080196380614,-0.019519239904868393,2.0582668342127644,0.9676807110398965
1776353282304,-1.8240815130487082,0.994489322630316,-9.536554125213623,0.1346853540171277,1.2934213971810902,0.7247231982997268
1776353282320,-1.8474248331047594,1.0335446641463786,-9.501987838745116,0.17536078471099323,0.45096969661329167,-0.02964515543197097
1776353282337,-1.838446430748701,1.0423732097029685,-9.56393780670166,0.22828274458669165,0.6213784874543199,-0.6338735714889178
1776353282354,-1.7842777643181382,1.0199275691390037,-9.599102643585205,0.282226778238659,0.02620119262555071,-1.1447829271849785
1776353282371,-1.6873125970818101,0.9578280366439371,-9.555259410205483,0.2001400706895648,-1.1516663704861763,-1.8901596570394719
1776353282387,-1.7314558363214134,0.9784780990280211,-9.472209955596924,0.45256619997092923,-0.3925111213633575,-2.3043596172253817
1776353282404,-1.8001394964471458,0.9693501321334391,-9.478794594684242,1.3666484956030316,1.012745658853406,-2.225864095075833
1776353282421,-1.873910688970238,0.8087890563644469,-9.600150691333413,0.5855122569880837,0.7130184952181463,-2.750386551396258
1776353282437,-1.7440252489067614,0.7571640830673277,-9.76834335795939,-0.31169072021421307,-2.0269228826681642,-2.6595347901513335
1776353282454,-1.7057180223442614,0.8034020295638591,-9.738715112414955,-0.9844227853560672,-2.4566662189709074,-2.507208124725121
1776353282470,-1.7137983068168163,0.9005168344039469,-9.598354455566406,0.33144741591444515,2.7637888766517045,-2.4353566690907025
1776353282487,-1.7016778070427476,0.8608629424728452,-9.515155947875977,1.3108633524437756,6.13778173111047,-2.269676770393703
1776353282504,-1.6674106496512888,0.7953215989608318,-9.521889640045165,1.0693416735331895,4.200292705104218,-1.698875620299916
1776353282521,-1.5514416528679429,0.6860860751509666,-9.57052244578898,-0.1322369713235161,-1.3045317670831738,-1.442867537046556
1776353282537,-1.5435108598686753,0.7193056962508708,-9.690082891193033,-0.36483562173328893,-2.118051480017886,-1.3354084909998627
1776353282554,-1.5779275087334215,0.7682372657455504,-9.690381581878661,-0.4128107103808998,-0.7309634832410324,-1.1405984758229937
1776353282571,-1.654242686650902,0.8141759370345621,-9.660304423522948,-0.5511566189063312,1.0031714411843407,-0.9788403863700511
1776353282587,-1.6825241937614976,0.8367712152022868,-9.603741409301758,-0.4881836087801359,-0.09550717549452299,-0.9698987082511524
1776353282604,-1.7012288942314684,0.8539795396346599,-9.5890769241333,-0.3045429806086476,-1.1523558994272303,-0.7245878751767958
1776353282621,-1.70018143100515,0.816869413902238,-9.565883680072426,-0.22167357606935226,-0.3577294502321253,-0.48321960871827047
1776353282637,-1.700779981420189,0.7876901542343199,-9.581894319152832,-0.15803440905566918,0.37381017013756834,-0.16993758782957666
1776353282653,-1.7112546136833726,0.827194481626898,-9.599701778522133,-0.16130462892507721,0.14757786968405567,0.004142136205642498
1776353282670,-1.7022763574577866,0.8928853896774351,-9.629778352355956,-0.2135145949406547,-1.2002268810508512,0.012457838159280131
1776353282687,-1.6979367208182812,0.9126374072432517,-9.625588499450682,-0.37219074829361415,-1.783600808581045,0.27963920376028195
1776353282704,-1.7363938772454857,0.9492987662948668,-9.571719546619057,-0.3053416324938631,-1.2950839079137537,0.3110453206984997
1776353282721,-1.742977785680443,1.0208255408920348,-9.520842761340736,0.4214493522162321,1.130812522289658,0.6683263796837843
1776353282737,-1.7636276288688182,0.9696493342757224,-9.562441430664062,0.6990436613720357,1.691468813753566,0.7459543077261824
1776353282754,-1.7262183740593493,0.9458570283431559,-9.561842880249023,0.22909537701536448,0.8325144156556648,0.8425029803474265
1776353282770,-1.6970391874566673,0.910692191459611,-9.629329439544676,-0.01961112729354622,-0.6080610059549701,0.2729597589996855
1776353282787,-1.6992836053825915,0.8949803161300718,-9.620351183319091,-0.029498839973344602,-0.2419111064149827,0.0711317778114813
1776353282804,-1.7061669351555406,0.8479940354842692,-9.558401215362549,-0.2049280066173173,0.6201700775797565,-0.363885798551834
1776353282821,-1.7063165727593004,0.8352748391646891,-9.555857960620521,-0.16830319826638665,0.26392331200605285,-0.8694732629456913
1776353282837,-1.7079625864006578,0.8432056321639567,-9.559299625506997,0.12411729046297257,-0.013643943197335159,-1.1047532161719436
1776353282854,-1.7073638898551462,0.8858523492354899,-9.562890343475342,0.20364401109463423,0.4773578123065186,-1.122581397287852
1776353282870,-1.703922371099144,0.9051556731857359,-9.536105796924232,0.3626007091316667,0.7156653536040849,-1.4184460889474695
1776353282887,-1.7227767091728745,0.8698412717636674,-9.534609420886635,0.29701840665996787,0.4492774105247152,-1.1882519586102323
1776353282904,-1.7745513200737535,0.7161633065719157,-9.641749945178628,0.6724557092847331,0.3562168834960848,-0.7698673869797789
1776353282920,-1.7717083517327903,0.6606477555770427,-9.684247024646401,0.2504549260147282,0.2433016368804621,-0.6719032643747553
1776353282937,-1.7257693151175975,0.6905752032637595,-9.657012396240233,-0.5262476126943822,-0.15853167884375782,-0.4698886269231394
1776353282954,-1.6931486097589135,0.7776643617171793,-9.588478373718262,-0.4772391377696896,0.24458080324595854,-0.1368326747787298
1776353282971,-1.6994332429863512,0.8352748391646891,-9.560047229003906,0.08823697273157331,0.7214318475325739,0.07981865785782682
1776353282987,-1.686863684270531,0.8818122069992125,-9.53161666881144,0.4359237503671056,0.5358086502327837,-0.027801591325449324
1776353283004,-1.6735459375359116,0.9237106629867106,-9.56902606975138,0.07615895712316936,-0.38579053538518226,0.13729699424015843
1776353283021,-1.677286877629906,0.948400867607072,-9.600150691333413,0.024319262065800634,-0.48873039743970714,0.2189471566517536
1776353283037,-1.663819493291527,1.0520997270125896,-9.635016253009438,0.21157962369313124,-0.08953129357929074,0.03885193026803081
1776353283054,-1.6952433900810777,1.0886113753952085,-9.56962403564453,0.2489844609916185,0.09933090749096653,-0.07278172206328896
1776353283070,-1.6941959268547593,1.0688591386336832,-9.558101940155028,0.07298958926572478,0.45080182337009744,-0.26458469309720695
1776353283087,-1.6862649877250193,1.0018213460188359,-9.599701194000243,0.11994089658977422,0.4816551752332202,-0.44120519414281795
1776353283104,-1.6934477388359606,0.934334932853654,-9.578902151599525,0.13447041650168384,0.7007881343747393,-0.8881601802671701
1776353283121,-1.6822249185539782,0.9066519030928611,-9.590573300170897,0.19746525121671146,0.5813977083433858,-0.8671844025217965
1776353283137,-1.6919512166678905,0.8340776652693748,-9.60852981262207,0.05562756856066971,0.47190017099456105,-0.8763648170965284
1776353283154,-1.6874620885550975,0.7579121249556541,-9.586832360076905,0.017865587073784838,0.18645429258356333,-0.7505282933142695
1776353283170,-1.695093752477318,0.7284336631454527,-9.592069676208496,-0.12210545290686002,-0.01344666812419815,-0.5561982056482997
1776353283187,-1.6995830267205834,0.6588521043319254,-9.615862055206298,-0.09328160104215664,0.09074034378408877,-0.6157685009073594
1776353283204,-1.6971886789299546,0.6254829186934977,-9.600749241748451,0.09030315831635506,-0.10887249499848922,-0.2981500836280743
1776353283221,-1.7085611368156968,0.6015409020919352,-9.597007717132568,0.11435134724947082,-0.3027437860513046,-0.18069967144484245
1776353283237,-1.7164919298149643,0.5943583701767027,-9.645639938354492,-0.1554400310685486,-0.012398127364895411,0.20761416527140994
1776353283254,-1.709758237645775,0.7234955491561442,-9.69831237487793,-0.6013553610156044,-0.6768340739861227,0.5060932185575556
1776353283270,-1.7105065717950463,0.8342273759383708,-9.646837623706459,-1.1092408639000535,-1.6851109748533422,0.21572757623173883
1776353283287,-1.665615144536644,0.970098320152238,-9.584138883209228,-0.8403199878556671,-1.4565190574850015,0.3410479938448386
1776353283304,-1.6804294134393334,1.050603350974992,-9.519944935718177,-0.2861409035198994,-0.1584441937254435,0.12045908383219606
1776353283321,-1.6720497076287866,1.0808302199997006,-9.513211243548989,-0.45790495330264624,-0.5358632917461438,-0.10425627429533908
1776353283337,-1.7126013521172105,1.09010767836757,-9.554511222186685,0.022448003676628706,-1.7519251659748762,-0.5177322877900804
1776353283354,-1.7476165513969957,1.0419243699569254,-9.545084053149818,-0.3189837347417735,-0.9699939040127095,-0.9656188476841989
1776353283370,-1.7438756113030016,1.0136428628463297,-9.571270633807778,0.029898406039790347,0.5462082002135098,-1.1959999544499653
1776353283387,-1.7417806848503647,0.9709961457747965,-9.606585108295082,-0.04472599967594756,0.40328168935423286,-1.0908908136428739
1776353283404,-1.7395361207939684,0.923561098448187,-9.602693946075439,-0.5739618201322104,-0.7802205130184902,-0.9236239631809045
1776353283421,-1.7440252489067614,0.8858523492354899,-9.591920623126626,-0.3026922127869857,-0.9444257311850014,-0.8695878286968477
1776353283437,-1.7419303224541245,0.8179168771285563,-9.556007598224282,-0.10430632677535058,0.3003431079601773,-0.941694295847231
1776353283454,-1.7146962785698472,0.7998107270736247,-9.558401215362549,-0.06707806053907873,0.4584535562312158,-0.7695458344802594
1776353283470,-1.7066158479668199,0.806095579496771,-9.57620809020996,0.15865691676549237,0.24732456494074673,-0.6323935015122877
1776353283487,-1.7067654855705796,0.7769162467636167,-9.597457214465736,0.32216460186301604,0.2026426946901398,-0.5551072963718018
1776353283503,-1.6873125970818101,0.7269373601730913,-9.583989245605467,0.04154019667581263,0.13014818741753514,-0.43787400949898225
1776353283521,-1.6786336160637438,0.7257400401473045,-9.607781624603271,-0.2607546912005487,-0.10874504260135973,-0.46362112794685933
1776353283537,-1.6298519033685326,0.8566730895675718,-9.629030748859048,-0.5843333023043161,-1.2968996710159193,-0.1904500332893001
1776353283554,-1.6885096979118883,0.9663573800582438,-9.57605903712809,-0.42231758665361707,-1.0321248265194363,-0.7502856615161755
1776353283571,-1.6639689847648143,0.9510943444747477,-9.551517885589599,0.08286486886679961,-0.6435867408189105,-0.5783572069456723
1776353283587,-1.7331017038322984,0.9120389298934489,-9.529670795440673,0.8586934635272658,0.9765546208756241,-0.1837307813324472
1776353283604,-1.8013364511467516,0.8866005372542888,-9.552714986419677,0.1633046470522745,2.1431195549323023,0.11419708102376373
1776353283621,-1.7815842874504624,0.8789689463973045,-9.607482933917641,-0.015348022034400449,0.941663026387437,0.40025170004453886
1776353283637,-1.7417806848503647,0.7803579116500914,-9.707740128436685,0.05622969242468864,-1.7061757051404847,0.5949586220536229
1776353283654,-1.7260687364555893,0.7160137420333922,-9.520542901611327,-0.09567136683886775,0.16016356044686197,0.5961487291556448
1776353283670,-1.7398353960014878,0.7582115462936461,-9.473258003345132,-0.04694100867944154,2.934681703789304,0.26087592705831647
1776353283687,-1.7290614885307847,0.8183658630050719,-9.618256841388344,0.5439722737556827,0.9311387720935052,0.3430433695778343
1776353283704,-1.7069151231743394,0.7634488624252378,-9.606136195483803,0.07348275026814086,-1.6820508366617648,0.28760822025268856
1776353283721,-1.7034733121573924,0.7849965312361716,-9.56962403564453,-0.2890449078559184,-1.6874110410563439,0.1064590103026682
1776353283737,-1.7233752595879137,0.8684944602645933,-9.577255553436279,-0.008986554596179823,0.24147077265692846,-0.5020298429707798
1776353283754,-1.7341493131890893,0.9029111091293394,-9.597457214465736,0.5615607045595531,0.30375291982074754,-0.6243564499324454
1776353283770,-1.746120175359398,0.9045570497054606,-9.58234323196411,0.2200586632174674,-0.3377820695240882,-0.7068833845178881
1776353283787,-1.7444741617180406,0.9296961671371012,-9.60164706737101,-0.24331431008302365,-0.5871607871772898,-0.7003341935991979
1776353283804,-1.6742941255547106,0.9287983415145427,-9.632622051349282,-0.5373816748151493,-0.14291639897765418,-0.6446701795760038
1776353283821,-1.6543921781241893,0.9385247857589274,-9.623942485809325,-0.31837990333046207,-0.38116687084305384,-0.7208628073973472
1776353283837,-1.6463118936516343,0.9267034150619059,-9.552865208545327,0.0308950800500833,-0.551732435869875,-0.6794973675147518
1776353283854,-1.6813270929314195,0.8378186784286051,-9.57665700302124,0.27162370996500756,-0.15697658350796345,-0.5243886273013753
1776353283870,-1.690604624364525,0.8080407952804118,-9.579051789203286,0.058590536639132974,-0.009863807017703336,-0.18907284303704341
1776353283887,-1.68895875685364,0.8011575385726988,-9.616161914935708,-0.4636522906849475,-0.587959599145064,0.08337707969369769
1776353283904,-1.721878883550316,0.7776643617171793,-9.631274728393555,-0.010267908756644793,-0.8447803148270969,0.43814393537332996
1776353283920,-1.710506425664574,0.7739234216231853,-9.604788872528076,0.040665932462051,0.14270746455816055,0.795458985221906
1776353283937,-1.7347477174736559,0.7782629121322184,-9.579200842285156,-0.12050593466103411,0.689241059252598,1.2096537160442324
1776353283954,-1.7233752595879137,0.7963691352523863,-9.591621347919105,-0.15701060105168127,-0.36184949504467107,0.923490881213795
1776353283970,-1.739685758397728,0.8262965829391032,-9.598055180358886,-0.12504344810617044,-0.4768397317858025,0.8985884383867516
1776353283987,-1.7444741617180406,0.9211668967880308,-9.585186346435547,0.06773173098699012,0.4566028417704068,0.6666505287378982
1776353284004,-1.7585400964714586,0.9546856469649821,-9.573814473071694,-0.040666732874844354,0.4540392796758306,0.5931947257004672
1776353284021,-1.7504596658684313,0.9406197852768003,-9.583989830127358,-0.11514927876317227,-0.250610312818346,0.3950550466640699
1776353284037,-1.7506091573417186,0.9099440765060484,-9.606734745898843,-0.21493735536128009,-0.49084594181341284,0.28206802970130906
1776353284054,-1.6991339677788315,0.8812135835189372,-9.597307576861978,-0.5284050453376071,-0.579486856201369,0.055636266379690894
1776353284071,-1.6840205697990953,0.9105426269210875,-9.594463877868652,-0.5080586588520797,-0.7577068754928059,-0.2399809376442194
1776353284087,-1.7253205484367906,0.9135353789962828,-9.552116436004638,0.08540986138456984,0.06828764435240568,-0.29394612887435795
1776353284103,-1.742977785680443,0.8491911363143473,-9.552714986419677,0.06319307028351664,0.20322112633547523,-0.17672810320546517
1776353284121,-1.7386382951714097,0.8174680373825133,-9.592069676208496,-0.2663960272485826,-0.2525298894598105,-0.3200621308982686
1776353284137,-1.7176888845145701,0.8164204280257225,-9.62783306350708,-0.7058002659259122,-1.1121932131687917,-0.1338994553757531
1776353284154,-1.7081122240044175,0.8604141027268022,-9.623045244708656,-0.6512013878872699,-0.8872844753103805,-0.23248886045495012
1776353284171,-1.723225621984154,0.8656512727279215,-9.626037996783852,-0.6186212788246033,-0.7087161697321258,-0.10654083917057612
1776353284187,-1.737291556737572,0.8572715669173747,-9.584588380542398,-0.3413463877342035,-0.6245559661614039,0.365018702819557
1776353284204,-1.7265176492668688,0.841858966795355,-9.533561957660316,-0.4200206954213623,-0.8805526835530982,0.5466898352717016
1776353284221,-1.73205424060598,0.8822611198104917,-9.557952887073158,-0.3039551574532034,-1.0759633284901051,0.6575512760204132
1776353284237,-1.7401348173394797,0.8521838153243064,-9.602395255389808,0.05628721542410484,-0.8272328651582466,0.7509212959958097
1776353284254,-1.7393863370597362,0.7564158219832926,-9.685443540954589,-0.541231713712068,-0.8474812811178667,1.2873899132571458
1776353284270,-1.6880606389701365,0.7920295716781168,-9.642048635864258,-1.2458516909328903,-1.2494518409557216,1.4228761069544575
1776353284287,-1.677286585368961,0.902910962998867,-9.568277297210694,-1.2102849749339297,-1.4800855579990728,1.3674420782072225
1776353284304,-1.7245723604179917,1.048658062126115,-9.485827562060951,-0.5082433407639344,-0.5502759513902227,1.5546217048641295
1776353284321,-1.7305578645683823,1.0839725366134196,-9.485528286853432,0.38607585586558896,1.42921324184376,1.6357210231913337
1776353284337,-1.7060174436822533,1.0752935555953531,-9.509470303454995,0.2451131844752493,1.546503598148746,1.604407594054587
1776353284354,-1.6946448396660387,1.0158874269027263,-9.55780266494751,0.5314563256276046,-0.1949905349421983,1.4363992411808482
1776353284370,-1.7296600389458239,0.8655016351241618,-9.574861351776123,0.6167563170160724,0.3050485746897872,1.2088235278949586
1776353284387,-1.773354073113203,0.8262965098738669,-9.62094973373413,0.5989817101964663,1.2476337299760287,1.1675203067668336
1776353284404,-1.7995407999016344,0.8372202010788024,-9.602544892993569,0.353193137406179,1.2675921830610408,1.17649240057188
1776353284421,-1.7781426225639878,0.8104349238753318,-9.526378768157958,-0.14489205787550682,1.027022461766025,0.9825630529111196
1776353284436,-1.8001393503166734,0.8307856379866599,-9.515754498291015,0.7153984426179255,1.4347525252606403,0.769367289066487
1776353284454,-1.7877192830741404,0.8581693194746971,-9.49914472427368,1.035997757222245,2.966366951348993,0.35882409476832566
1776353284470,-1.7170903340995312,0.8370704173445701,-9.610325463867188,0.5422033081215023,1.525321473985244,-0.13118928433785965
1776353284487,-1.6970390413261949,0.80280347914882,-9.674819855609536,0.34918445669361625,-0.8966089641879172,-0.46498263010836616
1776353284504,-1.7293607637383044,0.7260394614852964,-9.63995429393351,0.2750267449972606,-0.8251978956724059,-0.7966019213299724
1776353284521,-1.7522553171135484,0.7239444619674236,-9.579949614825845,0.33880849220986775,1.3451359610384301,-1.0588852942441347
1776353284537,-1.7661716142632067,0.7722774079818278,-9.56977367324829,0.24002613428661787,1.3012381217993467,-0.889613996704178
1776353284554,-1.7842777643181382,0.8387165771163999,-9.571270633807778,0.26324626950457536,0.3369740528091904,-0.6482172355502089
1776353284570,-1.7703616132989526,0.8855530740279703,-9.608829087829589,0.16927183114848554,-0.05839779723849168,-0.3135571494461984
1776353284587,-1.7624306741692124,0.8928853166121989,-9.588328736114502,-0.003172195982647797,0.6290730690803095,-0.386528996228337
1776353284604,-1.7280141714349389,0.9123381320357322,-9.565134907531737,-0.06037740483945822,0.8053426424768846,-0.4396601039669406
1776353284621,-1.7506094496026634,0.9802736041426658,-9.553763034167885,0.19751519697501718,0.9374686499068144,-0.5683402542801725
1776353284637,-1.7752995080925522,1.0042157668747007,-9.552565933337807,0.4018657057619246,0.716511550009226,-0.9713017785170611
1776353284654,-1.780686461827904,1.0163364127792418,-9.626935822406411,0.10651765387999511,0.09441626621802501,-0.8671957150226094
1776353284670,-1.8107634740531444,1.0407271960616111,-9.644442837524414,-0.4640642898301168,-0.18094667883287363,-0.7943847245315099
1776353284687,-1.8161505739189683,1.046114295927435,-9.657611531177162,-0.6827019535351042,-0.27920911528598275,-1.15484347566729
1776353284704,-1.7815842874504624,1.1183892585434019,-9.658060443988441,-1.3482902277745068,-0.5697059719490578,-1.5267001049805289
1776353284720,-1.6476586320854723,1.097290356413275,-9.605537645068765,-2.0734036006305705,-1.9776718826670834,-3.681565023964314
1776353284737,-1.615935460088402,1.0607787080306559,-9.524434063830972,-1.2117033064037652,-2.184463330308624,-4.910352341029574
1776353284754,-1.7325031534172592,0.9217653741378337,-9.329904594421386,0.32232233654416104,-0.621121074699975,-5.495419088256873
1776353284770,-1.9188018239676952,0.7704817567367106,-9.3975407913208,1.8741106334806459,1.087237622932269,-5.68401768671385
1776353284787,-1.9399008722282944,0.748485028984025,-9.515455807605385,1.8272350452068484,1.245625227473222,-4.930179526416475
1776353284804,-1.8942614030815659,0.7624012530684471,-9.702502227783203,1.1343486392890205,2.3906752790877714,-3.8765447266533757
1776353284820,-1.8620894644036887,0.7607554586227983,-9.718363813781737,1.3736267077789632,3.9214122393111897,-1.8766132574812209
1776353284837,-1.8091177526727318,0.712272801939398,-9.671078330993652,1.6271531912077875,4.026915610099437,-0.5241022396039107
1776353284854,-1.6554396413505077,0.5880734446883201,-9.583241057586669,1.204427447390409,3.5545642730936855,0.7212715515304902
1776353284870,-1.4805135748162865,0.519389857627824,-9.645639938354492,1.0982835329240606,2.118239310220061,1.0507422146495984
1776353284887,-1.4203592581048607,0.5624855605758726,-9.67227543182373,0.7725630705461125,0.28310787264159065,0.6846617375792219
1776353284904,-1.310076198003441,0.6896775237716734,-9.662848847308755,0.6180179276609679,-0.16816253905816672,0.6423941791176557
1776353284921,-1.355565737285465,0.7423498141646385,-9.690531219482422,0.8405521075657417,0.1850936975565556,0.4219504639857289
1776353284937,-1.3985120218254625,0.7546203168686478,-9.645939213562011,0.45543071727580914,0.09812826058851538,0.6846075229526849
1776353284954,-1.4996668958365917,0.8470961367964744,-9.623493572998047,-0.5965757227004764,-1.6491542977414562,0.8941520704382696
1776353284970,-1.5765806241691112,1.0184312661666421,-9.64010334701538,-1.0041338575270777,-2.453895936932233,1.2196075428207624
1776353284987,-1.6020191629387437,1.1059693374313413,-9.636212769317627,-0.9154036170713825,-1.6677409500203535,1.206442780082386
1776353285004,-1.681626368138939,1.066614647642523,-9.592967501831055,-0.6981052574130995,0.08565083899622435,0.9784399665299591
1776353285021,-1.7112546136833726,0.9494484038986265,-9.547328617206215,-0.7010807119311391,0.014804274943443966,0.5085608911994871
1776353285037,-1.7208312741935252,0.9316414559859781,-9.551517885589599,-0.8938842523176111,-0.7792077240306242,0.14043760059789492
1776353285054,-1.7447732907950877,0.9276011676192283,-9.636362406921386,-0.6846300945934576,-2.000740419701978,-0.26809383618543325
1776353285070,-1.8201906430900097,0.8707389512557536,-9.657610946655273,-0.8999634408440398,-2.010594675127014,-0.4436145166921135
1776353285087,-1.8558045389153062,0.8210593398727476,-9.645041972461343,-1.4906246466101083,-1.2443953665357965,-0.668457860825307
1776353285103,-1.8760056154228746,0.7631495141524821,-9.570970774078368,-1.3117916178406628,-0.6851455604323821,-0.9215401151538158
1776353285121,-1.8631367814995348,0.7635985000289977,-9.507674652209877,-0.5804527943603969,-0.8351783495145284,-0.8534213579008093
1776353285137,-1.873461922289431,0.7594085740584879,-9.49989349681437,-0.27540502008340295,-0.7272639753101185,-0.6363529835184852
1776353285154,-1.834705490654707,0.7802081279158591,-9.53146644668579,-0.22087943317620606,-1.0527686463989767,-0.3623325174850379
1776353285170,-1.8095665193535386,0.814924125053361,-9.587431495013833,0.10172190058729412,-0.3805885192389977,-0.1386691685722434
1776353285187,-1.807471592900902,0.8104349969405681,-9.578004325976968,-0.01820901752298954,0.7420325518429787,-0.14176126991470223
1776353285204,-1.7880187044121323,0.8643045342940837,-9.56378875361979,0.5414957965730242,0.7670776282297989,0.30780653037144434
1776353285221,-1.737890107152611,0.9326889922775328,-9.536554125213623,0.3341593745409105,-0.12415768462861085,-0.033471555471059046
1776353285237,-1.7129003350637853,0.9358313088912517,-9.545981294250488,0.5431628429781833,0.017367676955461486,-0.2366755796531828
1776353285254,-1.6810278177239,0.9265538505233823,-9.608530397143959,0.45281294055469595,1.0146568311605402,-0.3360123301575409
1776353285271,-1.6252129915215074,0.9365794969100505,-9.640253569141029,0.4415380057822974,1.281782434670271,-0.3399539095975936
1776353285287,-1.6144390840508043,0.9340356576461344,-9.625887774658203,0.12537340494002022,0.38655402246834275,-0.5391935959359068
1776353285304,-1.5915445306755602,0.915779869987443,-9.593865327453612,0.19514037221711547,-0.748150480348606,-0.5195124592033679
1776353285321,-1.6282057435967028,0.8717863414168358,-9.574711714172363,0.36478754360483434,-0.17165818185061163,-0.7022974994596063
1776353285337,-1.648406820104271,0.8328807105697691,-9.580697802844643,0.15988912558044496,0.41871114005014454,-0.5995233228533071
1776353285354,-1.6566368883110583,0.8120810836471617,-9.632023500934242,-0.05737180143953527,-0.06760441199199285,-0.26702573867354606
1776353285371,-1.6561878293693064,0.8391653437972069,-9.618854807281494,-0.16488415497826636,-0.41675060895408644,-0.26016393319819553
1776353285387,-1.6624726087272166,0.8295886102218181,-9.607033436584473,-0.296629619485806,0.12464108059494793,-0.1961639134168389
1776353285404,-1.672797749517113,0.8007086257614194,-9.626187049865722,-0.062242633452253504,-0.10897945682810868,0.227517870121356
1776353285421,-1.694794331139326,0.7755694352645427,-9.571868599700927,0.0374735660770105,-1.194382907163965,0.11385514467843998
1776353285437,-1.6805787587821484,0.7531237947005778,-9.559897591400146,-0.1646832513671328,-1.3278421355033696,0.1995279683460553
1776353285454,-1.7407330754935741,0.7407038735885173,-9.599551556396484,0.09846550117878476,0.28875083619563763,0.21129974601971938
1776353285471,-1.737291556737572,0.8081903598189354,-9.586683306995033,-0.17946946366187325,0.6332563465035307,0.4608923072908806
1776353285487,-1.7377404695488512,0.8529320764083415,-9.606584523773193,-0.4944590585234967,-0.6308687685017881,0.5386148974863069
1776353285504,-1.7437258275687693,0.8985714724898338,-9.589376199340819,0.11231749834154085,-0.8016286203939844,0.5820828616945026
1776353285521,-1.7494122026421128,0.8683448226608336,-9.546879704394936,0.1531499700254638,0.28658246457757014,0.5874996285931459
1776353285537,-1.7543500974357127,0.8381178805708884,-9.566481645965576,0.15358096563426218,0.9361188337720907,0.3244354263186337
1776353285554,-1.7408828592278063,0.8587679429549724,-9.591471710315346,-0.0748163180231594,-0.281975288538985,0.28705412115627127
1776353285571,-1.7292111261345444,0.9249078368820249,-9.585635259246825,-0.15555168865322241,-0.6050702902330037,0.1881819035567534
1776353285587,-1.7245723604179917,0.9407693498153239,-9.57635831233561,-0.1289961799644773,0.27033894070995756,-0.011651075424425266
1776353285604,-1.7274154748894273,0.9213165343917906,-9.573814473071694,0.3326685256719965,0.4932878411633982,-0.22408004381301816
1776353285621,-1.7085609906852244,0.8831588723678141,-9.573514613342285,-0.05371452862368434,-0.14221016808964546,-0.6540574208165401
1776353285637,-1.7088604120232165,0.874928804161027,-9.592219898334145,0.05578327552940484,-0.2953030953633691,-0.6406684891351697
1776353285654,-1.708411499211937,0.8565233788985759,-9.59625952911377,0.01597682632486475,0.06019632478517355,-0.7799687031536988
1776353285671,-1.711553888890892,0.8433552697677165,-9.585186346435547,-0.09210488751421038,-0.006637343047665672,-0.49726642635493057
1776353285687,-1.737291556737572,0.8303368713058531,-9.57650736541748,0.07153897447989042,-0.04444286699050937,-0.30879992268928447
1776353285704,-1.7407329293631015,0.8298878123641014,-9.60194575805664,-0.03871068409042906,-0.0008693550152956854,-0.3406834324978891
1776353285721,-1.7316053277947008,0.8150737626571207,-9.610325463867188,0.11627287156206581,0.34869428389896207,-0.19992110442972771
1776353285737,-1.7085609906852244,0.8497896136641502,-9.611373511615396,-0.046360175795726,0.07995093941214293,-0.06403409068592736
1776353285754,-1.6915024499870837,0.8643046073593199,-9.605985973358154,-0.26693241054184014,-0.30718175482537324,-0.08315632584528876
1776353285771,-1.675940139196068,0.8686440978683531,-9.60194575805664,-0.248615043807056,-0.5048505510154364,-0.3090562415461451
1776353285787,-1.6909038995720445,0.8581694656051695,-9.572617372241616,-0.022228477127836262,-0.1965913872093465,-0.5619570156139725
1776353285804,-1.700779981420189,0.8354245498336851,-9.565734042468666,0.1722134548857925,-0.19839042168413085,-0.4908123244760917
1776353285821,-1.704072008702904,0.7888871819991617,-9.580997078052162,-0.15456878174297528,-0.2963365883621566,-0.8075085061348662
1776353285837,-1.7131997564017771,0.8300374499678611,-9.61451531677246,-0.06285492255874812,-0.7940419877733927,-0.40114653486708984
1776353285854,-1.72561982364431,0.8623593185104429,-9.620351767840981,-0.19311596818014715,-0.2766454731501272,-0.12860392433487758
1776353285871,-1.7404338002860544,0.8966263297714292,-9.594165187183021,-0.18732415452696147,-0.00808560995597283,0.07945046797288083
1776353285887,-1.7322038782097398,0.8854035094894468,-9.575010989379882,-0.10158276216338155,-0.19336999252033346,0.19858956438711903
1776353285904,-1.7428281480766832,0.8889948850449174,-9.564237081909178,0.1758022924078111,0.0019590903530300637,0.2951581939673443
1776353285920,-1.7470180009819567,0.8458991090316325,-9.57665700302124,0.10127836517806642,0.3874723627465921,0.4291455880286613
1776353285937,-1.679082528875023,0.8433553428329527,-9.635465165820717,-0.13577959834693135,-0.1517096805646638,0.41327052085025917
1776353285954,-1.6645676813103258,0.8738814139999449,-9.623344519916175,-0.3874037673702011,-1.532853251649064,-0.08484749135595449
1776353285971,-1.6783343408562241,0.8684944602645933,-9.585037293353675,-0.05987525253333006,-1.0068951749424668,-0.22480001512064626
1776353285987,-1.7516567666985094,0.793526093846187,-9.53790144816935,0.3229955904250833,0.41405439177922393,-0.4262332327191649
1776353286004,-1.7473172761894762,0.7879894294418394,-9.543138764300942,0.12130341260748599,-0.06909691504734641,-0.1521230937724347
1776353286021,-1.782482113073021,0.8313843345321714,-9.608081484332681,-0.12971895271688216,-0.9164022120723795,-0.13752044281163833
1776353286037,-1.76392705020681,0.8378187514938413,-9.6151138671875,0.0677651348808997,-0.2837672793811878,-0.13278242596176512
1776353286054,-1.7432770608879624,0.8333295503158121,-9.591022797504067,0.08795330643760622,1.010191808434056,-0.1086359196571982
1776353286071,-1.7134990316092966,0.832730926835537,-9.573514613342285,0.1007193035223303,0.9016367304689872,0.04315889814825276
1776353286087,-1.7105062795341013,0.8720856166243552,-9.58264250717163,-0.06353148481254962,-0.6624474544382545,-0.029697875954627004
1776353286103,-1.7133496862664819,0.8964766191024333,-9.592069676208496,0.060507525279232255,-0.3940841726261496,0.09838786113782876
1776353286121,-1.7319046030022203,0.8903415504135191,-9.583989245605467,0.08406708888242764,0.047413625753494684,0.18931496790703506
1776353286137,-1.7265173570059238,0.8548772921919823,-9.561693242645264,0.19398585680397176,0.4924930312595908,-0.017990558191254915
1776353286154,-1.7233752595879137,0.8478443978805095,-9.573364975738524,0.16124961388574688,0.27445754477947526,-0.14217324237944506
1776353286170,-1.747167492455244,0.8388661416549235,-9.594912790679931,0.30815732461834794,-0.029314531587460037,-0.05063293936924499
1776353286187,-1.7413317720390855,0.8327309999007732,-9.623194882312417,0.0777230170822494,-0.1124900940202159,-0.02719829352266679
1776353286204,-1.7413316259086131,0.8406619390305131,-9.62843161392212,-0.1519473498034391,0.06701231996831737,0.06191294342266816
1776353286221,-1.7079625864006578,0.8381180267013609,-9.596260113635658,-0.25404389693887897,0.30828427008737497,-0.16468010307681225
1776353286237,-1.694195780724287,0.8307857110518961,-9.568277297210694,0.01761180285743655,0.32049152568148026,-0.2407935433924658
1776353286254,-1.6894075235344468,0.8243512940902262,-9.552715570941567,0.05424701657468088,0.06567968602822441,-0.1274007171434711
1776353286270,-1.6961412157036364,0.8547276545882224,-9.598953005981445,0.004055638263106634,-0.5724400753294727,-0.1273815605972833
1776353286287,-1.7325031534172592,0.879567642942816,-9.5946140999943,0.14802828864330628,-0.8820604478123786,-0.37298393069140834
1776353286304,-1.7329519200980663,0.8735819926619529,-9.591920038604735,-0.15043515659336884,-0.5004199460390666,-0.10317686428263906
1776353286321,-1.746868363378197,0.8719360520858317,-9.593117139434813,-0.25348846382113943,0.006201011353578217,-0.08420580041951709
1776353286337,-1.7413317720390855,0.8720857627548276,-9.604639234924315,-0.09316439392878216,0.01857592674746616,-0.10849779508949056
1776353286354,-1.7419303224541245,0.8714872123397887,-9.594015549579263,-0.03240209725742314,-0.44475321061237516,-0.09033754938604314
1776353286370,-1.7446237993218003,0.8689433730758727,-9.579949030303954,0.042257366538663965,-0.22840285986654865,0.1177900273314549
1776353286387,-1.7474667676627635,0.8497896136641502,-9.577105915832519,-0.021992195271236133,-0.029415757125393745,0.03329818606001708
1776353286404,-1.7536020555473864,0.8453005586165935,-9.58294236690104,0.018718240142125725,-0.08782641432943208,0.03755536826449198
1776353286421,-1.7516566205680368,0.8448516458053141,-9.604040684509277,0.13337870681239253,-0.27793987403912396,-0.010628734843891874
1776353286437,-1.7643759630180895,0.8262966560043394,-9.612121699634194,0.048906022087142474,0.4346455444969612,-0.06951240932838004
1776353286454,-1.7555473443962633,0.8355741143722086,-9.60179612045288,-0.1931798678014838,0.9051379494705591,-0.06744854494069905
1776353286471,-1.6843198450066148,0.8270447709579021,-9.603442718616128,-0.051969095125628736,-0.586840355255681,-0.064088465395023
1776353286487,-1.697338170403242,0.8402128070235252,-9.548525133514405,-0.07928966504269462,-1.3956862978074003,-0.4733922471630915
1776353286504,-1.7022763574577866,0.8135773866195232,-9.553763034167885,0.26958943417025444,-0.33905005679090405,-0.4291511642377884
1776353286521,-1.7543500974357127,0.7848468936324119,-9.597007717132568,0.2064217636527138,0.18444867156681255,-0.4584049978550852
1776353286537,-1.7604853853203355,0.8289901328720152,-9.6206510430485,-0.30363376503624256,-0.41776996132685795,-0.2907261482479465
1776353286554,-1.7738029859244822,0.8524830905318259,-9.63441711807251,-0.1815172931132606,-0.6381305402499811,-0.060391198619930475
1776353286570,-1.7565948076225817,0.8578701173324137,-9.584737433624268,0.0032055998765573904,-0.10588871618739858,-0.12989499017056866
1776353286587,-1.7181379434563218,0.8614614198226481,-9.555558685413002,-0.0631579321618881,0.6972341948505112,-0.14416691056514833
1776353286604,-1.7057180223442614,0.8686440248031169,-9.568427519336343,0.03660938706444522,0.37942789400819804,-0.07976401634446673
1776353286621,-1.7304082269646226,0.8913890136398375,-9.593865911975502,-0.0033340928103182555,0.051584683541403956,-0.10306339242896694
1776353286637,-1.7063165727593004,0.8994694442428648,-9.6020953956604,-0.07646949060656694,0.19402545055681666,0.036707144146941026
1776353286654,-1.6932981012322008,0.8792682946700602,-9.600299744415283,-0.024988513882756105,0.021376624472288736,-0.024639053657174746
1776353286671,-1.7016778070427476,0.8381180997665971,-9.581295768737792,-0.012225505005793917,0.260674489838654,-0.08552672165240052
1776353286687,-1.7202328699089586,0.8337785361923277,-9.577105915832519,0.09763056391360359,-0.0116572119225077,-0.04040846634685325
1776353286704,-1.737441048210859,0.8267454957503825,-9.586084172058104,0.10809452044376891,-0.39148744676150177,-0.047055040822069016
1776353286721,-1.7360944559074938,0.829738320890814,-9.606585108295082,0.01916182891220632,-0.4270696374078006,0.0747210955811759
1776353286737,-1.7473172761894762,0.8144752853073179,-9.604939094653725,0.0023466502275753965,0.27599433734272816,0.07327149465154648
1776353286754,-1.7320540944755076,0.8081903598189354,-9.59012438735962,-0.1614914719514741,0.5583595869946385,0.2195073922462533
1776353286770,-1.7061669351555406,0.8177673125900328,-9.579500117492675,-0.10236996814565197,0.06702389927339465,0.1504852357538068
1776353286787,-1.7081122240044175,0.8441035308517515,-9.579051789203286,0.04443715737925007,-0.5187501994198239,0.0028775907138381064
1776353286804,-1.7298095304191112,0.8562240306258201,-9.57007294845581,-0.024383935419504194,-0.33282145787638134,0.025864325561251567
1776353286821,-1.7387879327751694,0.8587680160202086,-9.578902151599525,0.0004240053370696978,-0.10739800123098628,0.18029666360338525
1776353286837,-1.742977785680443,0.8668483735579997,-9.600300328937172,0.002316127819721902,0.1379328421632043,0.2971026634466823
1776353286854,-1.7414814096428453,0.8732828635849058,-9.601497429767251,-0.034027202032210165,0.011164371085208968,0.313801248667747
1776353286870,-1.7045209215141832,0.8557752639450132,-9.599252281188964,-0.2060065895367975,-0.4429194649027854,0.37707361317865923
1776353286887,-1.6723488367058337,0.8707389512557536,-9.594165187183021,-0.13528726443773506,-0.6369321088549083,0.5829642762625517
1776353286904,-1.6721990529716013,0.8587680160202086,-9.580248305511475,0.03695767335126298,-0.789428301710755,0.5553584125455056
1776353286921,-1.7043714300408959,0.8402128800887614,-9.565135492053628,-0.09424743247947875,-0.5578179743377977,0.8506426448473777
1776353286937,-1.726966562078148,0.8883961154341697,-9.611672202301024,-0.010064710628836914,0.2548346247374402,1.05221123892968
1776353286954,-1.7235248971916735,0.9217654472030699,-9.593566636767983,-0.07298046455988046,0.5136998081371283,1.068632401076566
1776353286971,-1.6980866506829857,1.0131939500350504,-9.528324057006836,-0.522587324990343,0.22517714294845145,0.9173160700389861
1776353286987,-1.7229263467766343,1.0779871055282653,-9.526828265491128,0.581991881440324,0.24814301370238465,1.028197467746679
1776353287004,-1.7450725660026072,1.060180157615617,-9.509918631744384,0.9020959539689647,0.24958973314595798,0.987238957728228
1776353287020,-1.7616824861504137,0.9021627749800681,-9.603142858886718,0.8888552053760719,0.12320129806225039,1.1454696813616823
1776353287037,-1.7708103799797594,0.8530817870773375,-9.648483637347816,0.4052736499926436,-0.3431225304030977,1.3830490604607015
1776353287054,-1.781883562657982,0.8569722917098551,-9.623044660186768,0.1989855552764211,0.21524364665687284,1.5077853901780596
1776353287070,-1.7860734155632554,0.7707811050094664,-9.574712298694253,0.2875829272084184,1.6541988193303339,0.9419973854916502
1776353287087,-1.703323820684105,0.7679379174727946,-9.521142036548257,0.8407311332271901,2.204724659594644,0.7631209743488045
1776353287104,-1.711553888890892,0.7499814050216227,-9.523386600604653,1.1232818118428958,1.5047431812330536,0.3841051862074816
1776353287121,-1.7212801870048045,0.7140684531845152,-9.542988542175292,1.228791906098608,0.31564225145332986,0.9375523197241471
1776353287137,-1.7399850336052476,0.6587023936629295,-9.625588499450682,0.5700547384835516,0.3778523081048936,0.7534856051423264
1776353287154,-1.691203174779564,0.7023967200912534,-9.677662970080972,0.131664489413278,2.0531634022422955,0.1811018255126534
1776353287171,-1.6898564363457262,0.7061375871200114,-9.682301735797523,-0.03605043213041488,2.0319343205282494,-0.43025634754243464
1776353287187,-1.675191951177269,0.7341198190230875,-9.632022916412353,-0.1579209105215706,0.8179726227475902,-0.43767337269211315
1776353287204,-1.6849183954216538,0.7866426179427654,-9.621698506274818,-0.7911911842077057,-1.044484694152809,-0.2999170215498449
1776353287221,-1.7115537427604197,0.8023545663375407,-9.618405894470214,-1.1361099743212375,-2.0719084295325723,-0.16604438000266938
1776353287237,-1.7693140039421618,0.8447020082015544,-9.558550852966308,-0.8890090980758087,-1.1070800695230967,0.0827959266448648
1776353287254,-1.8017853639580308,0.8675966346420347,-9.515455223083496,-0.145659840507325,1.5616693928705248,-0.16397491272543488
1776353287271,-1.801935147692263,0.8753777900375426,-9.535207971301674,0.2352769116576376,2.6754598030880414,-0.4597101509559395
1776353287287,-1.7214296784780918,0.8782208314437419,-9.59566097869873,0.3799048866721882,2.979702041929797,-0.2462741565515928
1776353287304,-1.6897067987419663,0.8649031577743589,-9.60209598018229,0.8092351566127043,1.6152743183023717,0.5682523155946086
1776353287321,-1.7313060525871813,0.8661001855392009,-9.570970774078368,0.8541339920911649,1.4098372758289033,1.1244486002522043
1776353287337,-1.799840075109154,0.8450012834090739,-9.58892787105143,0.9270558130737185,2.1998611380187714,1.7350595079234106
1776353287354,-1.7386381490409373,0.8345265780806541,-9.655217329517006,0.9550014253411199,3.0035127217066964,1.992447502832525
1776353287371,-1.6910535371758042,0.8289901328720152,-9.681702600860595,1.0404155022330681,2.450535483860586,2.2300990258046527
1776353287387,-1.6053111902214585,0.8128291986007243,-9.654618779101968,0.8964531504974763,1.7989467495421827,1.7422913975939849
1776353287404,-1.5973805433526633,0.7962194245833903,-9.55795230255127,0.9546484966601007,0.6204753016582915,1.5843565065289569
1776353287421,-1.6163843728996812,0.8001100753463805,-9.56992389537394,1.7779206525125333,0.6286624039564624,2.019350550756147
1776353287437,-1.676239268273115,0.7945734840072691,-9.623343935394287,2.1468324030764387,0.6450044853193642,2.448900720771426
1776353287454,-1.6587316686332225,0.7562661113142967,-9.690082306671142,1.2976637984293145,0.0824547907123344,2.493713378472468
1776353287471,-1.6020191629387437,0.7468390884079039,-9.688885790362953,0.063600640477896,-0.35253322373847945,2.3081461033465076
1776353287487,-1.4992181291557847,0.7266379388350993,-9.623494157519936,-0.294499614320967,0.08212742187984981,2.230633061220383
1776353287504,-1.5349813703238964,0.7827519671797752,-9.547926583099365,1.0629854354585522,0.2506105796226104,2.0931876704483354
1776353287521,-1.5674530226007104,0.8174680373825133,-9.523386600604653,1.6324089150524064,0.023400174735610794,2.2293867651402675
1776353287537,-1.5315398515678942,0.8013071031112223,-9.606734745898843,1.2759482791803167,-0.8635169111026171,2.650804100844765
1776353287554,-1.5420144838310776,0.7739234216231853,-9.686042091369629,0.01801979993863903,-2.7434803763717293,2.6817060110840183
1776353287570,-1.5515914366021752,0.8185155006088316,-9.663596450805663,-0.6385169261857628,-2.446932559073405,3.03410193734801
1776353287587,-1.6570858011223375,0.9175755942977964,-9.552865208545327,-0.8247560144496178,-1.1411809628931489,3.3002765437375223
1776353287604,-1.7060174436822533,1.016037064506486,-9.523685875812172,-0.6834408946259349,0.3253192421250628,3.278037874686784
1776353287621,-1.6602281908012926,1.0658663134932518,-9.508871753039955,-0.6124618889362797,-0.07965457323518785,3.00393662032206
1776353287637,-1.681626368138939,1.1279661382492632,-9.476100533294677,-0.21928866611025422,-0.565952196030754,3.0145110338177092
1776353287654,-1.8206397020317613,1.104023975517228,-9.547478254809976,0.05489268289465865,0.28460315046129453,2.6923854387381563
1776353287670,-1.8477241083122788,1.028307421080023,-9.600150691333413,-0.1537106058263602,0.9567306371398967,1.3477011239585932
1776353287687,-1.8091176065422594,0.8845055377364158,-9.658060443988441,-0.0031842555354011006,0.214951069100473,0.7393766221120486
1776353287704,-1.8650820703484117,0.8050481162704527,-9.535507246509194,-0.019763365806843458,0.5985345996100949,0.6271197950602445
1776353287721,-1.9387036252677439,0.7909819623213261,-9.49360813293457,-0.041315974371965804,2.157654197486089,0.26818524332643506
1776353287737,-2.0020004777885974,0.7938252959884703,-9.497947623443602,0.6019639949036759,2.915909355742347,-0.8957551905416656
1776353287754,-1.903389443041384,0.8210592668075114,-9.494655596160888,1.59712341074818,2.400565819892773,-1.6780517609027223
1776353287770,-1.9075792959466575,0.8119313729781656,-9.54418622752726,2.237798143103138,2.353095791717773,-2.2970730860414474
1776353287787,-1.8580491029717028,0.6748632548689841,-9.67886007091105,2.4006202479627214,3.5050441209506236,-3.0248606914009826
1776353287804,-1.710805554741621,0.5663759921431541,-9.783605809020996,1.749837262522968,2.335059823440708,-3.044234949868547
1776353287821,-1.6555894250847398,0.5485691903609782,-9.716119249725342,1.0227913730186138,0.8846412454624385,-2.892279889421865
1776353287837,-1.6141398088432848,0.6402970414657145,-9.561843464770913,0.5023670835610492,2.0831355529807807,-2.933446079879767
1776353287854,-1.5783764215447007,0.7396564103621989,-9.57007294845581,1.4625264223034393,2.9631405407398086,-3.3441974348650545
1776353287871,-1.5432115846611558,0.7667408897079527,-9.578752513995767,2.03602731138838,2.2973552582315335,-3.7295500910914154
1776353287887,-1.4347241758048535,0.8040005799788981,-9.606434886169433,1.5418259857843453,1.0375356170025556,-3.9544609633839425
1776353287904,-1.4249977315604685,0.8252490466475486,-9.682301151275635,1.4111802617744569,0.5831746247446469,-3.7718592710182364
1776353287920,-1.4305344690300523,0.8270446978926658,-9.692925421142577,0.8231318168093299,0.37080558059385027,-3.7783402667669326
1776353287937,-1.4167678094841538,0.881961771537736,-9.6719767411381,0.5487534061746916,1.0536183646204085,-3.114128915975522
1776353287954,-1.4013549901664257,0.9274516030807047,-9.637709145355224,0.3197190206141812,1.02310086596538,-2.664269391906622
1776353287970,-1.4235015016533434,0.9510943444747477,-9.617359015765786,0.40371348537582463,0.35783558496852497,-2.3910722838332785
1776353287987,-1.463305104253441,0.9997264926314353,-9.597007717132568,0.2636682471292352,-0.10574165367683173,-2.2754563910920034
1776353288004,-1.5197184808708726,0.9665070176620035,-9.665243048968911,0.4956837434581917,0.41831023996237654,-2.1097005065404875
1776353288021,-1.5448575983025132,0.9187726220626383,-9.707889181518555,0.5302244369777693,0.872643537937635,-1.6654674575220911
1776353288037,-1.5687994687736033,0.8568225810408592,-9.66584101486206,0.21659938584626748,0.9174961095566394,-1.5435490077241867
1776353288054,-1.5267514482475817,0.7653940782088786,-9.643246321216225,0.2576912979969451,1.1350254683470864,-1.488800452493186
1776353288070,-1.5397699197746813,0.6902760011214762,-9.636811319732665,0.302654486663992,1.1017321381246823,-1.5431565920120283
1776353288087,-1.524506884191185,0.5707155557174235,-9.604490181842445,0.05962253553403959,0.727177370645877,-1.5870522968169962
1776353288104,-1.5138826143242419,0.539291731993109,-9.655216744995117,-0.06816985026964942,-0.21374055147222046,-1.7290047586676058
1776353288121,-1.5155286279655993,0.5579964324630796,-9.655516020202636,0.16873000504823313,-1.0786228333981789,-1.8018517143735537
1776353288137,-1.5276492738701402,0.573708380857855,-9.62678618480265,0.020024620542596447,-0.027000644923559546,-1.3049008107417661
1776353288154,-1.5560804185844956,0.6028877135910093,-9.638606970977783,-0.2987162422772449,1.0524975732662918,-1.0562283506569996
1776353288170,-1.559372299736738,0.6194974145431071,-9.637260232543944,-0.15759599628831897,1.2481318001769108,-0.9790813639817056
1776353288187,-1.530342750737816,0.6578047141708433,-9.658508772277832,-0.01037511071010226,-0.29440265765126455,-0.6713718970016695
1776353288204,-1.5138826143242419,0.6696260118026286,-9.638308280292152,-0.1776296081346275,-0.7763989154561622,-0.15390609331092536
1776353288221,-1.5165760911919175,0.6896774507064372,-9.638607555499672,-0.49278507520746173,-0.6051869370574229,0.10144623842126063
1776353288237,-1.5472517999626696,0.7520762584090233,-9.66524246444702,-0.42313614213696077,-0.4342501138966145,0.41202539870890703
1776353288254,-1.5687996149040757,0.7808068244613706,-9.618256841388344,-0.4601386919655049,-0.7531435620752969,0.5949324218748536
1776353288270,-1.575682944677025,0.7876900811690837,-9.599701194000243,-0.38429581785443373,-0.2291326228906822,0.6694476512855771
1776353288287,-1.5958838750541209,0.8092378230452537,-9.6013472076416,-0.1107952999715536,0.7148105127407754,1.1281596341273428
1776353288304,-1.5973802510917186,0.8071429696578531,-9.604040684509277,-0.3942803004409494,0.24503709189902714,1.0920588827126518
1776353288320,-1.585708517998457,0.8185153544783592,-9.618405894470214,-0.3385874448767679,-0.3440325197078697,0.9802706706709341
1776353288337,-1.5928914152398705,0.8313843345321714,-9.611523149219154,-0.04290415343655244,-0.2131929357194294,0.8013852415439499
1776353288354,-1.6142894464470445,0.8129789092697203,-9.610924014282226,-0.021404532198350583,0.1722440840153518,0.7714628231203586
1776353288371,-1.6180303865410386,0.8023545663375407,-9.615712417602538,-0.06159293838788248,0.21621321335389732,0.7375820432684806
1776353288387,-1.6406255185782908,0.7993618142623454,-9.616311552539468,-0.1610452418191754,-0.07452904987162218,0.3032754469090813
1776353288404,-1.6214719052970408,0.7718284951705485,-9.62124900894165,-0.12699312026866527,-0.1733491339178658,-0.08104723813478286
1776353288421,-1.6009718458428979,0.7541713309921324,-9.615562779998779,0.07288313436420778,-0.14916684916143566,-0.16565844763413723
1776353288437,-1.5921429349601268,0.7314262690901756,-9.62139864654541,-0.06643620952008265,-0.2085025701111876,-0.5709878597180517
1776353288454,-1.5728398302055895,0.7264883012313396,-9.622596331897377,-0.06416266366096755,-0.7318484729862251,-0.5865213107162474
1776353288470,-1.5617666475273668,0.7294811263717711,-9.62095031825602,-0.044496654730223226,-0.8858807113533842,-0.6976072405730703
1776353288486,-1.5828655496574937,0.7239443889021873,-9.617957566180825,-0.1520145311172285,-0.3868407836917775,-0.5290477234498231
1776353288504,-1.5753836694695054,0.7187071458358317,-9.613168578338623,-0.025000359992097845,-0.26908872260715433,-0.32581592494376965
1776353288521,-1.5732885968863963,0.733820543815568,-9.625588499450682,-0.08121572502778533,-0.5436592056317728,-0.10799900451709452
1776353288537,-1.5921430810905992,0.7318752549666911,-9.648034140014648,0.13976103834409342,-0.22210096982058053,0.3247754950341063
1776353288554,-1.5764309865653514,0.6983564317245036,-9.651027476611732,-0.22300140753268505,-0.013208145111776612,0.41783885018793987
1776353288570,-1.5557811433769761,0.7676386422652751,-9.641151394763588,-0.5787025050247282,-1.1279323168940283,0.6296065708875109
1776353288587,-1.5496460016228257,0.8002597129501402,-9.612420390319823,-0.21443152115630246,-1.0941906487856363,0.6727371877837316
1776353288604,-1.5788251882255075,0.740853511192277,-9.609278000640868,0.19407779755350246,0.4174267443210648,0.7091247537827101
1776353288621,-1.597380397222191,0.7561165467757731,-9.594314824786782,0.05258306509898941,0.5305095973756173,0.6975738366791607
1776353288637,-1.5918438058830797,0.7742226968307048,-9.600150106811522,0.026119817324892356,-0.5209416762871931,0.5815722516931914
1776353288654,-1.6391289964102207,0.7683867572188376,-9.616759880828857,-0.023700116089709556,-0.636328650969567,0.6983172600816343
1776353288671,-1.6310488580681384,0.8028036252792924,-9.632322191619872,0.043372661724933,0.5449555008310472,0.633856335933434
1776353288687,-1.6270084966361522,0.8104349969405681,-9.645939213562011,-0.06597941393891162,0.6046022088314463,0.640228902429056
1776353288704,-1.6150374883353709,0.8134277490157633,-9.594613515472412,-0.05215329678980752,-0.06180606163432804,0.32889100417415634
1776353288720,-1.6406256647087634,0.8032524650253355,-9.582343816486,0.24218874293257314,-0.0571521414886106,0.2142364605585604
1776353288736,-1.6400271142937242,0.7911318191207944,-9.596708441925049,0.3813377856548628,0.9533223727440603,-0.10276406472467642
1776353288754,-1.6193771249748765,0.7698832793869078,-9.62738473521769,-0.05053171383131129,0.4326009700576002,-0.3764457160226941
1776353288770,-1.6045630022026598,0.7905331956405192,-9.629479661670327,0.16353047018170802,-0.4327028892866215,-0.6890004551669138
1776353288787,-1.6074059705436228,0.774671609641984,-9.618256256866454,0.2882758712440573,0.07381822995026484,-0.792416722916047
1776353288804,-1.5909458341300486,0.7338204707503319,-9.587580548095703,0.06578571404291828,0.39275332627462844,-0.959960676287078
1776353288820,-1.6051614064872264,0.7296305447798221,-9.613617491149903,0.07831975150012636,-0.14904612023177038,-0.9145097160637571
1776353288837,-1.6126432866752147,0.7272364161849022,-9.615862055206298,0.08138154387814325,-0.3751480334412446,-0.7533882749466537
1776353288854,-1.5942380075432359,0.7312767045516521,-9.642647186279296,-0.025552057850135045,-0.4244491659636164,-0.8417519263429897
1776353288870,-1.55323730411306,0.7396564834274351,-9.654767832183838,0.17555112287325444,-0.3296231150758171,-0.6219319462205024
1776353288887,-1.5548833177544175,0.7398060479659587,-9.6411508102417,0.19807457879587065,0.2043628351439252,-0.5569838374854099
1776353288904,-1.5836137376762927,0.7456419145125895,-9.611523149219154,-0.18979342799447974,0.41444024410647673,-0.28053291800492225
1776353288921,-1.5687994687736033,0.7583611108321696,-9.618854807281494,-0.1294244808502047,0.012932963193419144,0.03443514575255975
1776353288937,-1.5713433080375194,0.7767664630293846,-9.626187049865722,-0.0976040435697169,-0.0890304486140584,-0.08416831442036135
1776353288954,-1.5717922208487987,0.7785621873397379,-9.616161330413817,0.06835055679796385,-0.13744659139123758,0.01573099287559718
1776353288970,-1.576880045507103,0.7875405166305601,-9.626037996783852,0.18635061244639664,-0.12256921207933331,0.031276930313369325
1776353288987,-1.5674528764702378,0.7887376174606382,-9.632322776141763,-0.06509167610979508,0.26238753329900494,-0.11721959981405305
1776353289004,-1.5801720727898179,0.7662919768966734,-9.6329213265568,0.06393147776581849,0.5394900154737148,0.06004558037575725
1776353289021,-1.6008219159781931,0.7615035735763609,-9.616909518432617,0.08025723070773569,0.27880346608230744,-0.1018148818734562
1776353289037,-1.5906467050530015,0.7730255960006266,-9.60793126220703,-0.2127922757554994,-0.4527473067056404,-0.13555638989928942
1776353289053,-1.6038146680533885,0.7814052287459373,-9.622146834564209,0.037085686037347826,-0.616306271582792,-0.21293370869608627
1776353289070,-1.615336909673363,0.7489339417953044,-9.657611531177162,0.2956254215952555,0.5754994131082566,-0.024010676253533574
1776353289087,-1.5972306134879588,0.7058383119124919,-9.696516723632811,-0.46485221618390127,0.11243820059077968,0.1788967416277971
1776353289104,-1.541565424889326,0.7172107697982341,-9.668534491729735,-0.9854113485167207,-1.8568193692665238,0.2542907709247779
1776353289121,-1.5089445734001696,0.8300375230330973,-9.597756489673257,-0.7551911780832726,-0.8187474756924165,0.4378344424265638
1776353289137,-1.5372260805107651,0.8050481162704527,-9.582343816486,0.2289272903287587,1.1352343227253008,0.6330341519120938
1776353289154,-1.5595220834709702,0.7326235160507262,-9.56438730403483,0.28056304020637907,0.329158288686286,0.45682562333122556
1776353289170,-1.5550329553581774,0.7445945243515074,-9.593716274371742,-0.4782787672665596,-1.4160446371239754,0.7478312223657608
1776353289188,-1.5626644731499253,0.7809564620651305,-9.607781624603271,-0.41198567155392984,-0.6676188147744533,0.7604589081197921
1776353289204,-1.5765807702995835,0.865501708189398,-9.615264089313149,-0.07938638158855907,0.9578320051435613,0.6346133663533947
1776353289221,-1.6223697309195995,0.8821112630110234,-9.569923310852051,0.1444555127380078,1.099541781835224,0.7569845296272241
1776353289237,-1.662173333519697,0.869990836302191,-9.577704466247559,0.7775232286265698,0.7816790252105523,0.9222669966918933
1776353289254,-1.71290062732473,0.7544706061996519,-9.647436174121498,0.26583400406551105,0.4076348143722053,1.1697996689589139
1776353289270,-1.605760103032738,0.7344190942306071,-9.696218032947183,-0.7624710391605956,0.3033105049894305,0.9460142837755583
1776353289287,-1.5484489007927476,0.7905331956405192,-9.688436877551675,-0.8958484653125187,0.4703109780737695,0.8942682903758656
1776353289304,-1.5448575983025132,0.8369208528060466,-9.590424247089027,-0.13694222460971445,0.8243245919539963,0.4946480093035827
1776353289321,-1.5749346105277537,0.7635983538985252,-9.5440365899235,0.20085724055241613,0.5107175767907716,0.06798535512077973
1776353289337,-1.5939387323357164,0.7134698297042399,-9.569325344958902,0.43749010484285994,-0.28628631184402664,0.007251793268702366
1776353289354,-1.6126434328056871,0.6531658023238182,-9.61421604156494,-0.22786831752271583,-0.8763687124387894,0.030898228340403854
1776353289370,-1.6490053705193102,0.6290742942489683,-9.635914078631997,-0.5182583190778772,-0.05401153513087411,-0.07786642437439321
1776353289387,-1.657983626744896,0.6477789216537028,-9.648184362140297,-0.162993820084186,0.46656152438454984,-0.19974151847932398
1776353289404,-1.630300523918867,0.7020973718184977,-9.636063131713867,-0.09776666076890138,0.3578813685803052,-0.08276839244477319
1776353289421,-1.61084778156057,0.7163129441756755,-9.607632571521401,-0.10299039478221242,-0.3932754622201642,-0.003525604911343066
1776353289437,-1.6093512593925,0.7372622087020426,-9.605088147735595,-0.19657772683100647,-1.0544818499418862,0.0317718522239308
1776353289454,-1.631797046086937,0.7719782058395445,-9.573365560260415,0.02174091901497371,-0.06196571730617709,0.03322065274076686
1776353289470,-1.609501043126732,0.8421582420028746,-9.61496481410563,0.1627626608694634,0.9662324974924422,0.06242595466235959
1776353289487,-1.5942380075432359,0.8744798913497477,-9.626187634387612,0.3612163151642697,1.0119828121004801,0.24534247606012075
1776353289504,-1.5599709962822497,0.9065024116195738,-9.615562779998779,0.34216889192066113,0.26824020500491247,0.18866711379208878
1776353289521,-1.5400690488517284,0.8729836614426225,-9.578153379058838,0.5211495168092024,0.18627969587290485,0.3128352571478662
1776353289537,-1.5456057863213122,0.8863013351120054,-9.596559388843179,0.6729339292483397,0.5373816214542965,0.4786181422909446
1776353289554,-1.5508429563224315,0.8427567924179137,-9.629778936877846,0.8083511807237166,0.9623403568825928,0.8437109099743139
1776353289570,-1.5478502042472362,0.7872410952925681,-9.645939213562011,0.5339371250393472,0.7854756498937274,0.7170476131373662
1776353289587,-1.5385726728141307,0.768835670030117,-9.663446813201904,0.39923773711790933,0.259822850626518,0.36181907935852337
1776353289604,-1.536777167699486,0.7526748818892985,-9.64578957595825,0.07643707388843582,0.8401701505807498,0.6363904961980674
1776353289621,-1.5102913118340073,0.7609050231613218,-9.647734864807129,0.28495197035664116,1.9270926243158464,0.8361979686915644
1776353289636,-1.514181743401289,0.7092799767989665,-9.623942485809325,0.23889669847433279,0.6715924907675198,0.77745087131005
1776353289654,-1.5300434755302965,0.6426911700606346,-9.635314943695068,-0.45225846793230845,-1.7397374404529289,1.349531828099568
1776353289670,-1.4984697950065136,0.7026959222335368,-9.649829791259766,-0.526416179628664,-1.0503911002375774,0.9065386718589407
1776353289687,-1.5186710176445544,0.7037433854598552,-9.65955682002604,0.054434206446621544,0.8794684443832116,0.48237175812668975
1776353289704,-1.5767304079033433,0.6437387794174254,-9.569923310852051,0.14630606711625813,1.9059758138362826,0.4049039660038167
1776353289721,-1.6729470948599279,0.6952139689803123,-9.606883798980713,0.232934263494029,0.0694432803434601,0.46083990693334187
1776353289737,-1.7229264929071069,0.6980571565169841,-9.672574707031249,-0.11923290479362009,-1.736850511589835,0.1297884285473459
1776353289754,-1.6289539316155015,0.7721276973128318,-9.744550978961586,-0.9553146535475885,-2.8531700127909607,0.3550206932568335
1776353289770,-1.5367770215690135,0.8689433000106364,-9.69696563644409,-0.7723008019541546,-1.9383750296076496,0.15964718747343842
1776353289787,-1.5209155817009508,0.8429064300216734,-9.620051908111572,-0.5187886725947581,-0.12352978747264569,0.1458131729181065
1776353289803,-1.5679019354119896,0.8162708634871989,-9.446472872272134,0.13136086616032977,1.2017047632325129,0.20878004654621937
1776353289821,-1.6078548833549022,0.9057540774703026,-9.45425344314575,0.8378301704597858,1.0513394293151515,0.3585317840161903
1776353289837,-1.6217711805045605,0.9205682002425193,-9.530269345855713,0.8216548951230205,-0.042233087350598685,0.4987494311784696
1776353289854,-1.5837633752800524,0.8414099809188396,-9.739612353515625,-0.23236404942003872,-1.8428868505767557,0.7226855607712415
1776353289870,-1.5607191843010484,0.7867923286117613,-9.76774422302246,-0.8963197483652495,-0.8214177594927741,0.9738909538210249
1776353289887,-1.5566789689995348,0.79397493359223,-9.69127940750122,-0.7783391694281219,1.0800187533098002,0.9678602169490209
1776353289903,-1.554584042546898,0.807891157676652,-9.55675578624308,-0.3483300960779829,1.9432140051911921,0.7011318849890613
1776353289921,-1.5231601457573472,0.7818542146224529,-9.532064997100829,0.12235179328423006,1.1183738940374184,0.49125938170161015
1776353289937,-1.5307915174186228,0.7652444406051189,-9.560795417022705,0.21061832792830484,-0.38143191419936207,0.4461853091822564
1776353289954,-1.5559306348502635,0.7266378657698631,-9.650877254486083,0.030861622795320818,-1.4460212701741035,1.0935988769270781
1776353289970,-1.5679017892815172,0.6661844199813902,-9.692028180041909,-0.21317217834765492,-0.9643928287281817,1.1624770658384256
1776353289987,-1.5864567060172556,0.6657355071701109,-9.67182710353434,-0.5096717574349663,0.7325870939119385,1.2609389384792136
1776353290004,-1.5875043153740465,0.6675310853499918,-9.662698625183104,-0.5376213717663344,1.0526085638403044,1.2329281192495798
1776353290021,-1.5732887430168687,0.6833927444137633,-9.638308280292152,-0.7647966118512791,0.02566657024043854,1.1936041588768778
1776353290037,-1.5370764429070054,0.7040426606673746,-9.634866615405679,-0.799487089284921,-1.396392582056262,1.3433402616169516
1776353290054,-1.5197184808708726,0.7110757011093198,-9.619602995300292,-0.7979403716030304,-1.1650499127214047,1.2992572602183372
1776353290071,-1.4864989328362046,0.7833506637252867,-9.62184755935669,-1.088788075873862,-0.47440663697654417,1.2655963804412218
1776353290087,-1.464651842687279,0.8333296233810484,-9.635465165820717,-0.5906664884905046,-0.5302203815529496,1.334521526903113
1776353290104,-1.4694400998771189,0.9112906688094139,-9.618106619262695,-0.7023673488160402,-1.2736229199330447,1.547173170130819
1776353290121,-1.5318389806449413,0.9060532796125859,-9.604788872528076,-0.7398773069947222,-1.7666954500550287,1.629466597624012
1776353290137,-1.57403707716614,0.883308509971574,-9.630975453186034,-1.0351854983195423,-1.9515308277227403,2.123233032276987
1776353290154,-1.5863072145439683,0.8809143083114176,-9.631125675311685,-1.149573130948979,-1.5894774408591739,2.2383930098911637
1776353290171,-1.6000738740898668,0.884505610801652,-9.600001053729653,-0.7568423763151232,-0.6854552668225598,2.594563682888645
1776353290187,-1.6291035692192612,0.8614614198226481,-9.56902606975138,-0.5763927805073531,-0.06359711866160521,2.959302828199908
1776353290204,-1.6237166154839098,0.8649031577743589,-9.56992389537394,-0.8396992410539892,-0.11117245447978524,3.189672942629979
1776353290221,-1.5849604761101304,0.8539795396346599,-9.628581251525878,-0.6910904396920847,-0.4791754430385353,3.5175781584078316
1776353290237,-1.5913947469413279,0.8084896350264549,-9.617807344055175,-0.7422453549243069,-0.43414715413096183,3.7101186297895525
1776353290253,-1.5985773519217967,0.7679378444075584,-9.619154082489013,-0.8463694010261827,-0.8175890115761588,3.466369882322719
1776353290270,-1.657983626744896,0.7628502389449626,-9.599252865710854,-0.5764872292169697,-1.4900591282911724,3.0254672975766446
1776353290287,-1.6698049974419176,0.7837994304060936,-9.553314121356605,-0.130564055224539,-1.3733834890114873,2.5172310004452916
1776353290304,-1.6898562902152536,0.7667407435774802,-9.567529109191893,-0.2552812017152827,-0.2906285245675829,2.095227762576054
1776353290321,-1.7096086000420152,0.7161633065719157,-9.598055180358886,0.1399355283330461,-0.10459874424919176,1.659716118075823
1776353290337,-1.7239738100029527,0.7697335687179118,-9.607632571521401,-0.28407535826535235,0.17656657990376493,1.3278103324350465
1776353290354,-1.710656209398806,0.8274936837691813,-9.612420390319823,-0.2180360467690709,0.2331781759525925,0.9064928882471605
1776353290370,-1.6727978956475853,0.9175755212325603,-9.592069676208496,-0.16731583572492315,0.10746102039825023,0.6884906455783958
1776353290387,-1.6578339891411362,0.8907904632247984,-9.539546877288817,0.2914296043716049,0.6799221732646148,0.329874658136344
1776353290404,-1.661275654027611,0.843055994560197,-9.513210659027099,0.7585461349870711,0.923621722025083,-0.005810516632123894
1776353290421,-1.6509505132377147,0.8110335473556071,-9.546430207061768,1.0634465799492336,0.8584988031359204,0.19118868089543997
1776353290437,-1.6572354387260972,0.8711877179365605,-9.612570027923583,0.658940632547129,0.882346835509843,0.31916838997320185
1776353290454,-1.647209719274193,0.9274516030807047,-9.665392102050781,0.4251166835528529,1.2792321060672118,0.5887783680718193
1776353290470,-1.6234173402763903,0.9409190604843198,-9.67796224528849,-0.07099234590287784,1.023952505177516,0.25502282846558577
1776353290487,-1.5536862169243395,0.9337364555038511,-9.606584523773193,-0.02958069552167897,0.606564927722473,-0.20660828651399332
1776353290504,-1.5521898408867418,0.9060534988082944,-9.559748538318276,0.6186568705134814,1.110482464225115,-0.3392859651215339
1776353290520,-1.565807008959353,0.8635563462752849,-9.559149987903236,0.4756642455574728,0.9876309465535633,-0.32130941415416286
1776353290537,-1.555930780980736,0.8720856896895914,-9.642796823883057,-0.005648246278483201,-0.6344533371555754,-0.5958804307873102
1776353290554,-1.5494962178885936,0.8822609006147831,-9.672574707031249,0.03755312710867058,-0.6736529667410422,-0.5467193438233501
1776353290570,-1.5638615739800035,0.8312346238631755,-9.638906246185302,-0.01061886308610709,-0.09510072587805433,-0.6007811982385002
1776353290588,-1.59169416827932,0.7757191459335386,-9.600449966540932,-0.09740978338476822,0.3043644885557281,-0.4763657273295742
1776353290604,-1.6105485063530505,0.7769161736983805,-9.592519173541664,0.08683379574395883,0.4445292017519399,-0.49157010194799283
1776353290620,-1.627607339312136,0.7948727592147886,-9.591321488189697,-0.08967712879024109,0.1488772598127977,-0.43904010421720324
1776353290637,-1.6044133645989,0.7908323977828026,-9.62184755935669,-0.041409622668789024,-0.49335806404580235,-0.37568473689961945
1776353290654,-1.597679526299238,0.7951719613570719,-9.63351929244995,-0.09317338523249426,-0.49564260224061296,-0.45890925791490256
1776353290670,-1.6265597299553454,0.7679379905380308,-9.6411508102417,-0.14666622619284408,-0.2184985786419277,-0.6069152417217005
1776353290687,-1.6163843728996812,0.7631494410872459,-9.626187049865722,-0.3475024158887948,-0.5289081314586609,-0.4924133101453721
1776353290704,-1.5940885160699485,0.789485805479437,-9.625887774658203,-0.2214238739582501,-0.7095166892471925,-0.49329082937116003
1776353290721,-1.6100994474112986,0.8515852649092673,-9.59012438735962,-0.015873412991962522,-0.28628220305835406,-0.5798762303449125
1776353290737,-1.6551405122734606,0.8185155006088316,-9.579350479888916,0.22046618005099383,-0.14989928022821375,-0.5578093298796294
1776353290754,-1.6674106496512888,0.816121152818203,-9.595062428283692,-0.21971005676553226,-0.15424381414887076,-0.5243652018869562
1776353290771,-1.6647173189140856,0.8493407739181071,-9.648782912555337,-0.4180434090174965,-0.5358591829604712,-0.5368585783742615
1776353290787,-1.6606771036125718,0.9105425538558513,-9.664494276428222,-0.4160902950799902,-0.7210093362993851,-0.2845545120438846
1776353290804,-1.6410745775200426,0.9454081885971128,-9.665092826843262,-0.49574601557351516,-1.1120061300185566,-0.7065594307799885
1776353290821,-1.6569361635185778,0.9440613040328025,-9.611522564697266,-0.7478260997238833,-0.682125816406443,-1.8960814310498728
1776353290837,-1.6217713266350329,0.8185154275435954,-9.493907408142089,-0.7114702834323747,-0.026787148151143757,-3.020108160399123
1776353290854,-1.6102492311455308,0.7650947299361228,-9.386018695831298,0.008562495898257236,0.5712712592077543,-3.892152562680501
1776353290871,-1.713648815343529,0.8958781417526305,-9.35354733581543,1.9447599758211422,1.4109430194225048,-4.168290280634946
1776353290887,-1.7981940614677965,0.9470541291732341,-9.590873159900307,2.4196591868307205,1.9588555652773445,-4.446259769947425
1776353290904,-1.7537518392816185,0.8864509727157652,-9.730933372497558,1.8251102160447397,1.2385604639939016,-4.683502975673233
1776353290921,-1.6237166154839098,0.7433974235214292,-9.782558930316567,0.3678829533201724,0.5413208263363954,-4.643533989310788
1776353290937,-1.5777778711296617,0.7652445136703551,-9.596260113635658,-0.25495268562446094,1.3780410376952013,-4.26600723576938
1776353290954,-1.6570858011223375,0.8277930320419371,-9.550171147155762,0.8273875582707768,1.2142379469160747,-3.6214636281364334
1776353290970,-1.7522553171135484,0.8928853166121989,-9.521291674152016,1.290971066816348,-0.1077502629013444,-3.4491546039631134
1776353290987,-1.6892577398002147,0.7773650134444237,-9.630227265167235,1.3785565035341258,-0.09337647663859636,-3.439404082036097
1776353291004,-1.6460124723136424,0.7148164950728416,-9.65925696029663,1.2389243850106164,1.0357487754826569,-3.6091018395123564
1776353291021,-1.5734383806206285,0.6802502816695719,-9.624990533557535,1.0134299584308766,2.944211311785353,-3.8012862872835904
1776353291037,-1.5702959909416734,0.7119735267318785,-9.635016253009438,1.077617835094835,2.634202899180226,-3.6267134822872342
1776353291054,-1.561617009923607,0.760156835142523,-9.644891750335693,1.1372624620219713,1.6165908372648916,-3.5345644119868305
1776353291071,-1.5424632505118847,0.8150737626571207,-9.655216744995117,1.1631332976072757,1.1406849204046767,-2.983101768589171
1776353291087,-1.5078971101738512,0.7583611838974058,-9.644143562316893,0.5636612545335965,0.8966358580577742,-2.930657441707697
1776353291104,-1.4718343015372752,0.7276854020614176,-9.642048635864258,0.3871892834220068,0.9175791390437373,-2.6725862144381702
1776353291121,-1.4510348207451402,0.7219991731185466,-9.643545011901855,0.7361209697554797,1.9041030613432297,-2.5674141078246677
1776353291137,-1.421855488011986,0.7469885798811912,-9.64070189743042,0.8359483999825944,2.105303999149115,-2.4065059500365686
1776353291154,-1.393573834770918,0.7713795823592692,-9.652523852649331,0.7417341045927608,0.833726240624813,-2.148253722754036
1776353291171,-1.3717268907524645,0.8050481162704527,-9.649530516052245,0.411112234433388,-0.4295219421240996,-1.5839609958873309
1776353291187,-1.4125776643179355,0.7772154489059001,-9.689034843444823,0.3414101539534079,-0.37758102152879713,-0.8596262645966486
1776353291204,-1.4305344690300523,0.7398060479659587,-9.692028180041909,0.33371877397859173,-0.2751085471847421,-0.5374323142645426
1776353291221,-1.4260453409172593,0.6795021667160094,-9.667038115692138,0.20267401751078665,-0.6142616437825782,0.05232506537526276
1776353291237,-1.4549252523124216,0.655859279191494,-9.655516020202636,0.5232247203781227,0.12782330841793918,0.877852944561945
1776353291254,-1.4652502469718456,0.6419429820418358,-9.65910732269287,0.5703397387988409,0.6718377906082584,1.4730060669243545
1776353291271,-1.4861995114982127,0.6054314797896891,-9.700856214141846,-0.25268111411690275,-0.5449815942881108,2.0671697723524645
1776353291287,-1.4275415708243846,0.6622936961531639,-9.66673884048462,-0.8329423163349955,-0.8945451798415156,1.9454809876654016
1776353291304,-1.433078162163496,0.74294851071015,-9.636960957336425,-0.7820824332584062,-0.40349195779504876,1.484881204570068
1776353291321,-1.4812616167046129,0.8696914880294352,-9.594463877868652,0.049251747053021475,-0.25115792857113706,1.2500105290854875
1776353291337,-1.519269421929121,0.8246504962325095,-9.620351183319091,-0.14392590627306737,-1.0972395811981066,1.1510736381322662
1776353291354,-1.5324375310599803,0.778412476670742,-9.652223992919922,-0.3459702123588906,-2.0892692762988636,0.9195959658395952
1776353291371,-1.6151871259391306,0.7646458901900798,-9.69741454925537,-0.769656878415125,-1.9782392152550174,0.8352308565937728
1776353291387,-1.6858162210442125,0.7926281220931559,-9.678560795703529,-0.8790776828574929,-1.1959210871093928,0.6495161987921279
1776353291404,-1.6828231767080724,0.7947229024153202,-9.676166009521484,-0.8346804927570579,-1.2598359696499624,0.8939435895860256
1776353291421,-1.6783343408562241,0.8084897080916911,-9.634267480468749,-0.9251913848737165,-1.163835846596435,1.1568073684970803
1776353291437,-1.6847686116874216,0.8031027543563395,-9.556755201721192,-1.1267129146837693,-1.4429982711361382,1.0321114863062135
1776353291454,-1.6769873101614414,0.8393149814009666,-9.490465743255614,-0.7053853319338339,-1.2538311661524635,1.089257864822712
1776353291470,-1.6849183954216538,0.8885458991684019,-9.488969367218017,0.10859280408806249,-0.006047598901517384,0.8702462482606663
1776353291487,-1.7163421460807322,0.8957284310836344,-9.558850128173827,0.5618856721536576,1.0947824206441945,0.8822396335563856
1776353291504,-1.6481075448967515,0.7846974021591245,-9.654917469787597,0.2210255618718473,0.33571446987670484,0.6399332833040413
1776353291521,-1.6039644517876206,0.7580619086898863,-9.667935941314697,-0.17948034927586295,-0.8343505626036346,0.4261066874565345
1776353291537,-1.589599241826683,0.7725766831893474,-9.655516604724525,-0.45124237057156324,-0.8031251255133048,0.21305067568562275
1776353291554,-1.6294028444267807,0.7713796554245054,-9.643395958819985,-0.429395263459337,0.5344364759006986,-0.49014440668045844
1776353291571,-1.6083037961661815,0.7546200976729392,-9.649979428863524,-0.8717243438857394,-0.45937648554281374,-0.962497451233503
1776353291587,-1.580620839470625,0.7227472880721092,-9.644742697253823,-0.8248951261931039,-3.171214356398019,-1.4891240327051154
1776353291604,-1.6032161176383495,0.7291817780990153,-9.62109937133789,-0.7586148104047415,-4.19330883667788,-2.170975627688553
1776353291621,-1.6264100923515856,0.7260393884200602,-9.642198273468017,-0.5197116019063561,-2.785884325173284,-2.093503993584272
1776353291637,-1.6769876024223862,0.7248422875899821,-9.684097387042641,-0.9417254585853192,-2.1927722554339444,-1.9958158533103991
1776353291654,-1.648705949181318,0.7692845828413963,-9.686491004180908,-1.8662800350406379,-3.244809004374672,-1.4570554407782592
1776353291671,-1.6439176919914782,0.8141759370345621,-9.673622754779457,-2.0974213205166854,-3.8134026159843697,-0.849796768607354
1776353291687,-1.648107398766279,0.9042577014327049,-9.632022916412353,-1.57213740482551,-3.1176323761329154,-0.46873902070846163
1776353291703,-1.6259611795403062,0.9006664720077067,-9.63396878978312,-1.2470527370097546,-2.134371363265985,0.029859879504003244
1776353291720,-1.5298935456655918,0.7827520402450114,-9.607781624603271,-1.9069678988132268,-2.3796039693300037,0.7228439357826212
1776353291736,-1.4944297258354722,0.8234535415329038,-9.511415007781983,-1.7118530864446462,-2.994542548892354,1.248295297830168
1776353291754,-1.5951356870353222,0.9298458778060972,-9.476399808502197,-0.9770264375368838,-1.1387865547022362,2.18087513311684
1776353291770,-1.6142894464470445,0.9566310819443314,-9.537153260150552,-0.12258786169741862,0.5844494155202064,2.636035097425082
1776353291787,-1.634041756273806,0.8830093078292905,-9.60793126220703,-0.013472281333585698,0.20174372440148974,3.366397043771477
1776353291803,-1.6377825502373278,0.7743723344344645,-9.572168459430337,-0.8895670391536341,-0.21678945720426424,3.519348244619923
1776353291821,-1.6540929029166698,0.742798800041154,-9.57037222366333,-0.8110689023222941,0.7023859183928463,3.4003285697944543
1776353291836,-1.6802796297051013,0.7236452598251402,-9.559448678588867,-0.4156176513255106,1.4419018123309397,3.212863355852876
1776353291854,-1.6838709321953356,0.7187072189010679,-9.55765361186564,-0.025876598557416433,1.4088108264626973,2.7355330243855964
1776353291870,-1.691951362798363,0.705239834562689,-9.559897591400146,-0.2530951943353348,1.4378026316118742,2.1436599936503793
1776353291887,-1.6983856336295604,0.7112251925826072,-9.582193594360351,-0.6549201590860774,0.9066135904963992,1.4392075161467812
1776353291903,-1.6778852819144725,0.792927251170203,-9.612121115112304,-0.48342969039610123,-0.23671322573489723,0.382794376856221
1776353291921,-1.677286877629906,0.8234534684676676,-9.580847440448403,-0.6937259855772105,-0.12812479723677178,-0.20065238823816864
1776353291937,-1.7253204023063182,0.8571220023788512,-9.536404487609863,-0.45807053202916614,0.2975214927810216,-0.9898706082710927
1776353291954,-1.7550982854545116,0.9038088616866617,-9.521889640045165,-0.13637177041188614,0.4115244470219689,-1.3513876118414017
1776353291970,-1.7874201539970933,0.9335867448348552,-9.511565229907632,0.04419553943736087,0.431439837898698,-1.4035686562747125
1776353291987,-1.8531110620476305,0.9536381106734275,-9.56393839122355,0.23778380452644382,0.8157934722372389,-1.9187969326820427
1776353292003,-1.7941538461662827,0.8699907632369548,-9.61466553889811,0.4335436428847677,1.9855684351212644,-2.1276974146732366
1776353292020,-1.7486640146233141,0.8337783900618553,-9.62080009613037,0.1820396958630608,1.7094243138644718,-2.338426252927878
1776353292037,-1.671750140160322,0.8728338046431541,-9.558101940155028,0.1280947017157414,0.5397493492187636,-2.3989082183585757
1776353292054,-1.7018274446465074,0.8863012620467692,-9.51261269313395,1.0619891883350823,0.576142838272413,-2.7765675202585633
1776353292070,-1.730707502172142,0.8619104056991637,-9.513659571838378,1.6313311325457196,1.5192237158820094,-2.9555609517517984
1776353292086,-1.6941956345938145,0.8681951119918375,-9.59566097869873,1.9009385493233981,1.6193367867546482,-2.9963783756752065
1776353292103,-1.6629215215384958,0.8666986628890037,-9.670180505371093,1.5667258672904498,0.9482462615302715,-2.6069594090151607
1776353292120,-1.6506513841606676,0.8521838883895426,-9.655666242328286,1.2760123122037856,1.2565866138740347,-2.3259359713700403
1776353292137,-1.610248938884586,0.8279425235152245,-9.64728595199585,1.2804182111052669,1.8242592171628385,-1.928411277712482
1776353292154,-1.5773289583183825,0.7764673339523375,-9.636063716235757,1.4153857373124807,3.1631957143124243,-1.4973872809403614
1776353292170,-1.5521898408867418,0.736364383079484,-9.6329213265568,1.1222598447883325,2.963429329675653,-1.287339113725194
1776353292186,-1.4873967584587633,0.6763597039718181,-9.64010334701538,1.0082156426081008,1.0555617668826887,-0.9298714518373504
1776353292203,-1.4496880823113023,0.7291818511642515,-9.631574003601074,0.9579834432440651,-0.5816827086586751,-0.8201336839288117
1776353292220,-1.4555238027274608,0.7345688048996031,-9.621997196960448,1.14109441158976,1.4687060359550084,-0.5039262343216633
1776353292237,-1.510440949437767,0.6979076650436967,-9.636212769317627,1.3128116639045218,2.5846908578868035,-0.4277046849180531
1776353292254,-1.5414157872855663,0.7050900508284569,-9.64638812637329,0.7991952054196086,0.4873966429217035,0.13697768289646034
1776353292270,-1.556529331395775,0.7254408380050211,-9.672724344635009,0.49863251754978605,-0.5453584286312251,0.47667676774107426
1776353292287,-1.6048622774101793,0.7610545876998454,-9.647585811725259,0.379552918486521,0.3271543752168277,0.9139783486906713
1776353292304,-1.6023184381462632,0.8162708634871989,-9.647435589599608,0.23039823559954442,0.9465849247363717,1.1742322482868406
1776353292320,-1.6127929242789745,0.831384188401699,-9.653720368957519,0.13926819750679467,1.0218272491285842,1.0601990384423043
1776353292337,-1.5991759023368357,0.8418588206648826,-9.626337271991371,0.021153149220382382,0.4318325737759737,0.8932121723754525
1776353292353,-1.5810698984123766,0.8461983111739159,-9.617657706451416,0.12377604780873638,0.038781227137950604,0.6800066968555937
1776353292370,-1.591993297356367,0.837668894694373,-9.610026188659667,0.018361149314580997,0.34510096406530066,0.5275919326612583
1776353292387,-1.6020190168082713,0.8203111518539488,-9.596708441925049,-0.23107429092524345,0.13063099641449044,-0.203036657867032
1776353292404,-1.596033658788353,0.8458991090316325,-9.655217329517006,-0.004252379727714735,-0.030593324426986254,-0.32739577971530537
1776353292420,-1.6026175672233103,0.8375193301558495,-9.634267480468749,-0.05409152304935731,0.014923483088801844,-0.5745396114473111
1776353292437,-1.6096505346000194,0.7903834849715232,-9.602544308471678,-0.2184189375689883,-0.5102423450349267,-0.999145578277147
1776353292454,-1.5849604761101304,0.749981478086859,-9.582343816486,-0.023802462205553966,-0.48998293673961113,-0.9345519456878075
1776353292470,-1.5752340318657456,0.7329227912582457,-9.580847440448403,0.1963874153491717,-0.15387343646895624,-0.7713291008230145
1776353292487,-1.59648242546916,0.7216998248457909,-9.624391398620604,0.10870939755162873,-0.6123902786717005,-0.6701433167247135
1776353292504,-1.582715912053734,0.743547061125189,-9.661352471271156,-0.1747531379987001,-0.7590730200485142,-0.43705003788907015
1776353292520,-1.569697294396162,0.7607553124923259,-9.655067691913246,-0.2504717613638152,-0.15166507089164716,-0.20483091654548263
1776353292537,-1.5898985170342028,0.7597078492660075,-9.62109995585978,0.1829295414458665,0.22247623001853456,0.21523142702156087
1776353292553,-1.5747851190544664,0.7392074244856834,-9.597007717132568,-0.06747834697703851,-0.011022004329696513,0.7429116718943534
1776353292570,-1.5839130128838121,0.7718285682357847,-9.600449966540932,-0.13257605286321023,0.25466387000818985,1.0713597809895166
1776353292587,-1.5870554025627672,0.754320895530656,-9.658509356799721,-0.05176664404976133,0.6090439128652173,0.8943625256420706
1776353292604,-1.5749347566582261,0.7589596612472087,-9.637409870147705,-0.3548824886478465,0.389500395321557,0.988051536796048
1776353292620,-1.572540262737125,0.7894856593489646,-9.617358431243895,-0.17455778391626717,-0.18052238001111304,1.1011066422070974
1776353292637,-1.5704454824149607,0.8045991303939372,-9.610774376678465,-0.07349030082882489,-0.6676381847640527,0.9840920547898504
1776353292654,-1.5936393109977245,0.7793103022933006,-9.605537645068765,-0.016178957235614813,-0.17491519490892923,0.8695982874240142
1776353292671,-1.6071068414665757,0.7767666822250932,-9.605388007465004,-0.07597779702760535,-0.13813462622841058,0.8294407771683061
1776353292687,-1.6207238634087144,0.7896353700179606,-9.623494157519936,-0.24862438195631187,-0.15437574885764307,0.2645247955398371
1776353292704,-1.6240158906914293,0.8182161523360758,-9.629179801940918,-0.359632084802797,-0.419390397027017,0.1700728842720811
1776353292720,-1.6195266164481639,0.8126796340622008,-9.61346843806803,-0.25993114647745974,-0.38264723430437475,0.19438014014598132
1776353292737,-1.5994753236748278,0.8432057782944291,-9.594613515472412,-0.197716954359797,-0.4619094718686836,0.09625161275320149
1776353292753,-1.6340416101433335,0.811931446043402,-9.624690673828125,0.0466179087151882,-0.06645459233390351,0.0043624631672283
1776353292770,-1.6546914533317088,0.7775147241134196,-9.623792848205566,-0.04705013162360307,0.12083586481445746,0.027280682679530068
1776353292787,-1.5906467050530015,0.7435469880599528,-9.651625442504882,-0.8241733139360511,-0.9975628953804081,-0.03879510095970219
1776353292804,-1.5644601243950427,0.8001100753463805,-9.636961541858314,-0.4001925762195359,-1.9153485409248325,-0.16646537045155077
1776353292820,-1.580770623204857,0.8120810105819255,-9.577256137958168,0.18057862235005984,-0.7780786083834564,-0.13325928522362307
1776353292837,-1.6048622774101793,0.7407039466537535,-9.571869184222816,0.3482429044443594,0.8134879632272422,-0.1009189264729945
1776353292854,-1.6362860280692577,0.6929693318586796,-9.630975453186034,-0.059949023912451486,-0.4360307922380044,-0.02663997891887114
1776353292871,-1.644366458672285,0.7547698083419352,-9.632022916412353,-0.6265804769200779,-1.2639114581503443,0.4154502583299924
1776353292887,-1.6618740583121776,0.7977157275557517,-9.63366893005371,-0.14032826421032182,-0.2843818630043567,0.48056298529625285
1776353292904,-1.6499031961418686,0.8399136779464781,-9.577105915832519,0.19763862062775342,1.0647240387674377,0.43266564341130376
1776353292921,-1.6156361848808825,0.8250995551742613,-9.577405775561928,0.5108596767420196,1.6948967149432663,0.4925230734197683
1776353292937,-1.5952854707695543,0.8279426696456968,-9.58892728652954,0.29174763505483364,0.9710573858108216,0.13511725676042521
1776353292954,-1.5530876665093003,0.8650527953781187,-9.599701194000243,0.3630897079875573,0.7000542092040802,0.03821069289884298
1776353292970,-1.5632630235649645,0.8502385995406657,-9.612869887652993,0.4961154861189305,1.8072403067418708,0.06487954003912799
1776353292987,-1.5619162851311266,0.8396144027389586,-9.613617491149903,0.4606182993112867,1.8653485679925774,0.046908565280883975
1776353293004,-1.5682010644890367,0.8696916341599077,-9.641450085449218,0.47709783823123497,0.7485729915817947,0.05337830188961988
1776353293020,-1.5831648248650132,0.8638557676132768,-9.616161914935708,0.38811370683748575,0.6483199551920236,-0.12159812459800146
1776353293037,-1.5785260591484604,0.8307858571823686,-9.618854807281494,0.2850566109891599,1.436389102618799,0.03647470427174903
1776353293054,-1.5602701253592968,0.7790111001510173,-9.626486325073241,0.437709311226535,1.4740784066240467,0.048816375854286054
1776353293071,-1.5538358545280992,0.733371704069525,-9.619602995300292,0.3004066073751173,0.5902367201813228,0.035143671157242796
1776353293087,-1.5515912904717026,0.7043420089401304,-9.625738721576333,0.18051944516420404,0.0863357789039297,-0.14674584058535703
1776353293104,-1.5465036119438706,0.6880314370650797,-9.643994509235023,0.2981341820939129,-0.17529144228266175,-0.0827047062668481
1776353293121,-1.5643104867912827,0.6868344093002379,-9.647436174121498,0.06342433621994505,-0.26591489911849336,-0.03565481476708305
1776353293137,-1.568350555962324,0.685188249528408,-9.631274728393555,-0.21937844574524287,-0.32971166741118924,-0.07705461903894018
1776353293154,-1.5800224351860581,0.7106267882980406,-9.602844168201088,-0.3029263068486173,-0.3572494693603733,0.096770440325858
1776353293171,-1.58525975131765,0.7315760528244077,-9.608081484332681,0.10154474255569691,-0.14090778975314153,0.1825619385303023
1776353293187,-1.5924423562981187,0.7297804746445268,-9.592069676208496,0.2393056026900344,0.3130551572226289,0.19454443821203185
1776353293204,-1.5887014162041246,0.7655437888778746,-9.60793184672892,0.08207902358627792,0.32764257365992494,0.12324014476315484
1776353293221,-1.5738872934319077,0.8237526706099509,-9.612570027923583,0.11915819959957308,0.2491582039286307,0.21301113529363072
1776353293237,-1.587803590581566,0.8421581689376384,-9.617208793640136,0.14106501750618405,0.7087168634232134,0.33051114638962453
1776353293254,-1.6065082910515367,0.8556256263412535,-9.62768401042521,0.49712288566065455,1.1557578672424254,0.21791345020955447
1776353293271,-1.605610465428978,0.8336288985885679,-9.64055225982666,0.382014027743547,0.848332279999768,0.36831304179447166
1776353293287,-1.5898983709037302,0.8277930320419371,-9.637858782958984,0.21616694949444104,0.4013398879175394,0.39593859566623446
1776353293304,-1.5903472837150097,0.8300375230330973,-9.629629299274086,0.2084307464031967,0.1357301061558752,0.4485051189008278
1776353293321,-1.633742334935814,0.7861937781967222,-9.599552140918373,0.3417490487301169,0.8978716954107234,0.6309297065957893
1776353293337,-1.6451146466910838,0.7637480645675212,-9.60119815455973,0.3376678506184756,0.9543432725815657,0.5152697911508792
1776353293354,-1.6216216890312731,0.7228969987411051,-9.622745384979247,0.31912255300056874,0.5610980659649906,0.38204198883046175
1776353293371,-1.5825662744499742,0.711524540855363,-9.619154082489013,0.06237958408119755,0.38687029224342606,0.23346611111479085
1776353293387,-1.571343161907047,0.7252911273360252,-9.632771104431152,0.37932362690164956,0.9790945974732225,-0.1025046776187746
1776353293404,-1.5466532495476304,0.7460908273238688,-9.643545596423744,0.27200860179690833,1.0791312556045218,-0.13967507401008647
1776353293421,-1.5004152299858629,0.7610545876998454,-9.651326751819253,0.09376403651314169,-0.2023495568447846,-0.051375295554660756
1776353293437,-1.4863492952324449,0.7803579116500914,-9.643245736694336,0.0583568161034716,-1.0192076581384728,-0.32811876591112177
1776353293454,-1.4553743112541735,0.8270448440231383,-9.616161330413817,-0.06479728428439695,-0.8838539060780358,-0.5965701731717757
1776353293471,-1.4983203035332262,0.7881389939803629,-9.654319503894447,0.19652962202212548,0.2655504444932497,-0.44443219172138454
1776353293487,-1.500265592382103,0.7436966987289488,-9.637410454669594,-0.09352396603598631,-0.1896970049333062,-0.45914996872229263
1776353293504,-1.4896413225151597,0.7900843558944761,-9.62693523788452,-0.45918556041117076,-0.5993497399988535,-0.4084297309977184
1776353293521,-1.5059518213249743,0.8159716613449156,-9.635314943695068,-0.23529999022651282,-0.6394441243655921,-0.009742891325052953
1776353293537,-1.5158277570426464,0.8028035522140562,-9.632173138538002,-0.10326571010270212,-0.25797437732153045,0.04935435997313034
1776353293554,-1.5292952875114976,0.7790111001510173,-9.636811319732665,-0.2459405978601729,0.23516197238051095,0.46001804307711897
1776353293571,-1.5408173830009997,0.7594085740584879,-9.634866615405679,-0.19345593017391396,-0.020503160671320464,0.5595209325969522
1776353293587,-1.5469525247551499,0.7588099505782127,-9.637709729877114,-0.4106199805654711,-0.22463302233152474,0.8187036130713403
1776353293604,-1.5469523786246775,0.757612995878607,-9.629927989959716,-0.42175204165425473,0.1199192320835006,1.074019926227825
1776353293621,-1.5682010644890367,0.7516274917282164,-9.62080009613037,-0.275343975267696,-0.028579325756331635,1.1188350385281
1776353293637,-1.5568286066032946,0.7629998765487224,-9.619154667010903,-0.2979009418059275,-0.5073987451843801,1.2466993814419123
1776353293654,-1.578226783940941,0.7604560372848064,-9.619603579822183,-0.06007588934019918,-0.6014568533578025,1.189477657401132
1776353293671,-1.6112966943718492,0.7401053231734782,-9.616460605621338,-0.2887449131409668,-0.1281278121249601,1.1017325650115055
1776353293687,-1.6109974191643297,0.7481858268417417,-9.616910102954506,-0.20630727794283674,0.32381820133324674,1.1322812264046223
1776353293703,-1.6032161176383495,0.781106026603654,-9.622146834564209,-0.19916615508302973,0.1886711158560556,1.0179316934241498
1776353293720,-1.597679818560183,0.7875404435653239,-9.607781624603271,-0.2436053134942632,-0.30670961799899615,0.9634735279545802
1776353293737,-1.588551778600365,0.7869418931502848,-9.60119815455973,-0.033093974076004284,-0.34977980372931805,0.6439651226267586
1776353293754,-1.5881028657890854,0.8020554372604936,-9.61391735087931,0.006880028206612688,-0.015131110167399655,0.5367407576110789
1776353293771,-1.5854093889214098,0.8249499175705015,-9.61496422958374,-0.144199540726691,0.1118265251340933,0.4051736517543264
1776353293787,-1.5934898195244371,0.8301871606368572,-9.621399231067299,-0.0523838423547219,0.10802018877569212,0.2644202082681713
1776353293803,-1.5898983709037302,0.8197125283736735,-9.610475101470946,-0.06146185745275642,-0.197180544386113,0.17206938058298757
1776353293821,-1.581369173619896,0.8032523919600993,-9.599252281188964,0.055023737149358265,-0.27251318202184305,0.18134675182742183
1776353293837,-1.5734383806206285,0.8108839097518473,-9.602993805804848,0.1381554102806115,0.09206897566021492,0.09255824132036998
1776353293854,-1.5723909173943103,0.7966682643294334,-9.619902270507811,-0.08694225167745923,0.1822789125665699,-0.04295505969021019
1776353293870,-1.5777777249991893,0.7784125497359782,-9.636811319732665,-0.025293311074467924,0.06059861225511672,0.003532221657101516
1776353293887,-1.5719418584525584,0.7749708848495036,-9.628581251525878,-0.11763397351717597,0.1259866812222933,0.07085355432450907
1776353293903,-1.548149625585228,0.7749709579147398,-9.613617491149903,-0.19250986893258787,-0.14634240585707672,-0.04930473437994197
1776353293920,-1.5484489007927476,0.7655436427474022,-9.62109937133789,0.14470935031520898,-0.24840845726508956,-0.17325188376347245
1776353293937,-1.5382735437370836,0.7583611108321696,-9.610624739074707,0.13341888753461922,-0.38155117570557284,-0.2065512170818267
1776353293953,-1.5581753450371325,0.7746716827072203,-9.620201545715332,-0.0031855361958704784,-0.19740009761533187,-0.08104574403090192
1776353293970,-1.5707449037529526,0.7981647864975034,-9.632173138538002,-0.17321501141412496,-0.06446401907766793,-0.2044658749508572
1776353293987,-1.5812195360161363,0.7894857324142008,-9.629030164337157,-0.04320292085188761,-0.0736717544090798,-0.06623026330835091
1776353294004,-1.5614673723198473,0.8062452171005308,-9.614365679168701,-0.18563787153433522,-0.02294041762710431,0.0589712663245083
1776353294021,-1.5523394784905016,0.7930769618391991,-9.626486909595132,0.02168328929385173,-0.06101109164796202,0.12131867381141273
1776353294037,-1.562215560338646,0.7930770349044353,-9.616760465350746,0.024863382682727354,-0.09340283689992437,-0.009091515393815879
1776353294054,-1.5646097619988024,0.7929273973006755,-9.617657706451416,-0.2748573776501855,-0.09539383704298308,0.20549467219459036
1776353294070,-1.568051426885277,0.7987633369125425,-9.62798270111084,-0.1019728566784392,-0.08374126751467688,0.11952873736204626
1776353294088,-1.5638615739800035,0.7972668878097087,-9.630227849689126,-0.11184490794791414,-0.14568508019074233,0.08642067602087883
1776353294104,-1.5720916421867905,0.7987632638473063,-9.589676059070229,-0.13977998144686962,0.19757677539925306,-0.05912035654748498
1776353294121,-1.5949861955620348,0.834077738334611,-9.603741409301758,0.01584438468798997,0.03233934489442365,0.027351225727051606
1776353294137,-1.6011213373161852,0.8141759370345621,-9.616161330413817,0.33671562619864065,0.25879922938551525,-0.05181461545651009
1776353294153,-1.573438234490156,0.7612042253036052,-9.636212769317627,-0.43180722737085064,-0.12773929175506274,-0.08015133609517404
1776353294170,-1.5396202821709215,0.7989129745163023,-9.65237363052368,-0.3016452194924168,-0.8839356549046644,0.06743605850112261
1776353294188,-1.548149625585228,0.8126795609969645,-9.645490885272622,0.09618677931693925,-0.844638695123525,-0.16563422180692483
1776353294204,-1.5375253557182849,0.7667408897079527,-9.587581132617592,0.15330220853876103,0.4717714646173886,-0.19361649298026215
1776353294220,-1.5521896947562694,0.72618902602382,-9.611972062030434,0.12409690661716831,0.17688012827535082,-0.24818194044456843
1776353294237,-1.5252549260795116,0.7634488624252378,-9.601048516955972,0.07238373014200349,-0.6430104969685436,-0.16307890396412025
1776353294254,-1.566704688451439,0.8047487679976969,-9.603741409301758,0.23859478276867707,-0.1844855705965865,-0.10848853698151402
1776353294270,-1.6027672048270702,0.8095371713180094,-9.633369654846192,0.307090321003945,-0.1978576402484434,0.15756846208822736
1776353294288,-1.603665176580101,0.8108839828170835,-9.629030748859048,-0.03675004627266517,0.056206587175386964,0.3242660056107057
1776353294304,-1.5952854707695543,0.8274937568344175,-9.637859367480873,0.07593452137591097,0.6374473078895683,0.2680538155457652
1776353294320,-1.573139105413109,0.8500888888716697,-9.616759880828857,-0.059609275362096245,0.8683891304975104,0.4124782722673906
1776353294337,-1.562065776604414,0.8478444709457457,-9.617657706451416,0.24124345542361397,0.6649839092195622,0.30803934377260656
1776353294353,-1.5435108598686753,0.7963691352523863,-9.616310968017578,0.22426072366090616,0.6359685185734075,0.0699294510741475
1776353294371,-1.5354302831351756,0.7799089257735758,-9.613018940734863,-0.0530292952312881,-0.10715785071255157,-0.11412408337700923
1776353294388,-1.5315397054374218,0.7858944299239665,-9.613168578338623,-0.17368954947888218,-0.631111507021588,0.05762027625102093
1776353294404,-1.567303238866478,0.7680875550765544,-9.628730889129638,0.17122051613520192,0.023116028193967686,3.7139153611944336e-05
1776353294420,-1.5825664205804466,0.7460908273238688,-9.615563364520668,0.2132584628467792,0.5122059710604525,-0.07262518800133402
1776353294437,-1.5634126611687242,0.738309671928361,-9.638158058166503,-0.00030010143665743525,0.17395760772337873,-0.24342316622292073
1776353294454,-1.5530876665093003,0.7416017722763121,-9.637559507751464,0.18609746856028303,-0.08190186555468071,-0.1737334921412377
1776353294471,-1.5423137590385974,0.7606057479538023,-9.61481517650187,-0.08100134780129685,-0.1944633030352115,0.0414373703122922
1776353294487,-1.537675139452517,0.7812556642074138,-9.630227849689126,-0.11822000908404835,-0.46324941624562255,0.00111417460835833
1776353294504,-1.5432115846611558,0.7911318191207944,-9.629330024066567,-0.0032901234675362986,-0.22081924213414533,0.1760633337001525
1776353294521,-1.5696974405266344,0.8048983325362205,-9.616610243225097,-0.03934663873518072,-0.17101454324304372,0.18366223931690903
1776353294537,-1.5538358545280992,0.8246505692977458,-9.624840895953774,-0.11837643642429752,-0.1358569715836229,0.27179259706440667
1776353294554,-1.5471021623589098,0.8349756370224058,-9.627084875488281,-0.15566438677452762,0.2374784737262031,0.15377028994031847
1776353294571,-1.568949106377363,0.8255483218550682,-9.614365679168701,0.11733091055318311,0.2790960969995602,0.14525939398680657
1776353294587,-1.5652083124138414,0.8084896350264549,-9.60733329631388,-0.07216924619380923,-0.08756964190532192,0.09521160973036126
1776353294604,-1.5674528764702378,0.795770511772111,-9.62094973373413,0.08374185448405867,-0.3788615219156159,0.2527227089017311
1776353294621,-1.5800224351860581,0.8029531167525797,-9.636212769317627,0.03154154678285443,-0.03019818731133044,0.1787633394955703
1776353294637,-1.5726901926018297,0.81312854687348,-9.617508068847656,0.1565862488690678,0.10770530638278396,0.004436314587629063
1776353294655,-1.5693980191886423,0.8041501445174217,-9.607781624603271,0.020470023581675323,0.07121427369005037,0.04224952249328903
1776353294671,-1.5668543260551988,0.7870915307540446,-9.607482933917641,0.027912741982020702,-0.03559745185022552,-0.03060853227006011
1776353294688,-1.5610184595085679,0.7731752336043864,-9.62065045852661,-0.050257359006173626,-0.2582628460922577,-0.22267121057499725
1776353294704,-1.5682010644890367,0.7764672608871013,-9.632471829223633,0.004217535090777092,-0.4681115504393196,-0.0685315034501163
1776353294721,-1.564160849187523,0.7875405166305601,-9.605537060546874,-0.07338867508449451,-0.49034360274429956,-0.06580017483405166
1776353294738,-1.5746353353202343,0.8216578172225505,-9.622297056689858,0.11355616381969325,-0.12455564986946988,0.04096229863900608
1776353294754,-1.5879532281853257,0.80280347914882,-9.631873863330483,0.2322386514157455,0.3095194671100895,0.010960052379490383
1776353294771,-1.586307068413496,0.7430980752486736,-9.634866030883789,-0.16295145156699076,0.2870943552393509,0.16217264991905064
1776353294788,-1.5280981866814196,0.7951719613570719,-9.644742112731933,-0.3178538453622389,-0.546457181953098,0.17104591942454345
1776353294804,-1.5426130342461168,0.8068436944503337,-9.619304304614662,-0.07051724754916527,-0.9731897922140407,0.10527957537122451
1776353294820,-1.535430429265648,0.7694343665756285,-9.607781624603271,0.03992587079330954,-0.2829432010495699,0.09568177220518144
1776353294838,-1.5625148355461655,0.7308277917403727,-9.602544308471678,-0.0114230645000232,-0.508294833986974,-0.10875720887581881
1776353294855,-1.568051426885277,0.7538719096541404,-9.592518589019775,-0.04714209905356023,-0.5234428061838872,0.11251279906312091
1776353294871,-1.6138405336357653,0.8066940568465739,-9.619453357696532,-0.05817378837805642,0.038270563775786366,-0.07049766411615438
1776353294887,-1.6211727762199937,0.8361727378524839,-9.630078212085365,0.14678183248063184,0.21520463987340974,-0.08067872808471953
1776353294904,-1.5987271356560289,0.835873316514492,-9.619005029407143,0.15077370452453406,0.3004140245336691,0.014182034037885226
1776353294922,-1.5800222890555857,0.8038508693099021,-9.624391398620604,-0.0978436604796227,0.2968018683189373,0.25044601475229544
1776353294938,-1.5716427293755113,0.8206104270614684,-9.621997781482339,-0.016468546584252775,-0.18154589453041,-0.0623591468745404
1776353294955,-1.5658068628288804,0.8276433944381772,-9.606883798980713,0.1436598490605542,0.013067165738439317,-0.08735899993853578
1776353294971,-1.5620659227348863,0.8156722400069236,-9.60882967235148,-0.06896740825738062,0.8299839906507337,-0.01132359987023489
1776353294988,-1.5556315057732164,0.8002597129501402,-9.6336695145756,-0.006815248131203348,0.1558371158553349,-0.28661720249280204
1776353295003,-1.548598392266035,0.7950223237533122,-9.619004444885253,-0.03694582724192124,-0.6353117531960285,-0.15407975620665823
1776353295020,-1.5451567273795603,0.7787119710739702,-9.611971477508545,-0.007282742563378987,-0.17556443640605068,-0.25939591044253935
1776353295037,-1.562215560338646,0.7641969773788004,-9.634267480468749,-0.004244002073810892,0.00761293952106679,-0.3448545970075042
1776353295053,-1.5613177347160876,0.7577625604171305,-9.629778352355956,-0.04154286471845716,-0.21332166877702827,-0.08404270297265658
1776353295070,-1.5792742471672594,0.7597078492660075,-9.62768401042521,-0.03815541105524818,-0.10437393497596313,-0.07960241300148715
1776353295087,-1.5783762754142283,0.7800584903120994,-9.643694649505616,0.08987483075020122,-0.01785923713229084,-0.040043051226257564
1776353295103,-1.5673030927360057,0.7767664630293846,-9.65297218093872,-0.15970732515464628,0.007099928281375364,0.14778053420333465
1776353295120,-1.5403684701897202,0.7848470397628843,-9.620351767840981,-0.26253630335686423,-0.19423980110287872,0.01245036763987543
1776353295137,-1.5631132398307324,0.8083400704879313,-9.59610989151001,0.1234094587493771,-0.24391000396426926,0.17116838258192768
1776353295153,-1.5716427293755113,0.8087889832992107,-9.589376199340819,0.26099348101723474,-0.07392575206883965,0.1968903947485197
1776353295170,-1.614588721654564,0.7927778327621519,-9.609577275848388,0.16662870802224927,0.08275275771487621,0.10510444505203716
1776353295187,-1.6095011892572044,0.7855950816512107,-9.647435589599608,-0.060362143635531475,0.10079854438887302,0.16896719403933239
1776353295204,-1.5952854707695543,0.797566089951992,-9.64564052287638,-0.2611213336207609,-0.020876579919849755,0.04472194425112786
1776353295220,-1.571792366979271,0.8137270972885191,-9.62723509761393,-0.0023060959793784457,0.11071656603311333,-0.021139382120336572
1776353295237,-1.5830151872612535,0.8110336204208433,-9.586533669391274,-0.01732077276577054,0.11295964284522783,-0.17247604364286778
1776353295254,-1.5837633752800524,0.7951720344223081,-9.574712298694253,0.053777387708389614,-0.12292571593749624,-0.3277854206631134
1776353295270,-1.6030664800345897,0.7941245711959898,-9.58937678386271,0.3498183836259581,-0.10058963664980583,-0.5443726402349218
1776353295287,-1.6172821985222399,0.7866426179427654,-9.637111179462075,0.21284411582408275,0.39417662030378275,-0.5352811782019589
1776353295304,-1.6214720514275132,0.7739234216231853,-9.64683703918457,-0.26792228104338955,0.3050041250993292,-0.91218296943431
1776353295320,-1.588850907677412,0.8173183267135172,-9.661950437164306,-0.9820183453248111,0.7672844015347504,-0.9027225171036076
1776353295337,-1.6386803758598862,0.8204607894577085,-9.743802790942787,-1.8534629716196973,2.6930351604829537,-0.7756320666392696
1776353295354,-1.6563376131035386,0.8351252015609294,-9.750536483111977,-2.2488782040407798,3.3718733613819465,-0.128832015300559
1776353295370,-1.6068075662590562,0.8833085830368101,-9.699210200500488,-1.870832996452686,2.354636853149257,-0.16442562516937637
1776353295387,-1.5664052671134472,0.8461983842391521,-9.637110594940186,-2.30765753137744,2.095534267315058,-1.0693168073757424
1776353295404,-1.5239081876456737,0.7028454867720604,-9.577854103851317,-2.475563858300452,0.7954521016718831,-0.9321719449271754
1776353295420,-1.3365620538689196,0.6863854234237223,-9.550470422363281,-2.350172684196419,-1.6800617575094101,0.6560241951323864
1776353295437,-1.5996249612785876,0.7719782058395445,-9.624541036224365,-1.4390245951430718,-2.9683001083275187,-0.04151607757030602
1776353295454,-1.7063165727593004,0.8059458688277751,-9.776573426166177,-1.7675496505881034,0.35311768516019154,-0.4384367263731414
1776353295471,-1.701228748100996,0.8554759887374938,-9.878775325012207,-4.873290453932615,6.28017538049278,0.744304496876507
1776353295487,-1.7969969606377183,0.9133856683272867,-9.799317757415771,-4.389703669185604,4.289975223340601,0.5991167665151327
1776353295504,-1.810613982579857,0.9671055680770426,-9.65985609523356,-1.836231471560813,-2.714070649022712,-0.47614347937728435
1776353295520,-1.5656572252251206,1.0082559091109782,-9.366865667071938,-2.8002275089868993,-3.951025805118249,-2.3911200951574685
1776353295537,-1.655290003746748,0.901564224565029,-9.617956981658935,-2.46251990453302,2.776421738408466,-4.563971676990247
1776353295554,-1.67309687859416,0.8871990876693278,-9.660753920856118,-1.2140802122349297,7.4094626361634095,-4.597781967155457
1776353295571,-1.4815608919121324,1.0905565911788493,-9.694421797180174,-1.7751981817980484,2.9059895731899617,-3.643187471678482
1776353295587,-1.4266438913322985,1.2551580283798276,-9.885209741973876,-1.9580861017786602,-7.303101222860679,-4.623816086950607
1776353295604,-1.507298559758812,1.1628316268600523,-9.765200383758545,-0.8085921049745182,-15.026720117446118,-6.177529590098536
1776353295621,-1.5997745988823473,0.919820158354193,-9.422380633544922,-0.28084846740849156,-10.965560500169175,-6.230990761392696
1776353295637,-1.6883600603081286,0.7896354430831969,-9.565135492053628,-0.7497510391310632,-2.456573157643466,-5.615435757257752
1776353295654,-1.6707028230644763,0.7909822545822709,-9.776423788562417,-1.821134192174146,2.4075748746416754,-4.934511147010732
1776353295670,-1.4832069055534898,0.8695418504256754,-10.19555871669352,-0.5770621390460144,-1.544222314965962,-3.5106882050825816
1776353295687,-1.3531718278862535,0.9326889192122966,-10.04262850112915,1.334320890096244,-8.547256038671645,-3.932953124574395
1776353295704,-1.327134738701582,0.8809143083114176,-9.781810157775878,2.4737978275131804,-14.806045243099469,-4.7424142110382395
1776353295720,-1.3703801523186265,0.7070355588730424,-9.367912545776367,2.5109504280600534,-17.617296463963356,-3.0702432430108977
1776353295737,-1.6086032175041733,0.5389924567855894,-9.551668107715248,1.1862587173113521,-15.053240034445984,-1.1332010607867526
1776353295754,-1.6730970247246324,0.560989184538275,-9.750536483111977,-0.3592184314711881,-11.563786887492974,0.5529603758165964
1776353295771,-1.671451011083275,0.7336710523422807,-9.851392228046059,-0.16818737853518734,-9.143839765500054,1.5550654537167687
1776353295787,-1.6681588376700878,0.913086320054531,-9.351452409362793,1.7110016606759217,-8.30962009706856,1.0345055743320088
1776353295804,-1.9726715074516832,0.9498973167099058,-9.082404582324623,3.89829802538622,-9.279588067706765,-0.5469267040976834
1776353295820,-2.1760290109612046,0.9169770438827574,-9.241468770599365,3.05872263487179,-12.017185089882174,-2.136990740812685
1776353295837,-2.2183764528252183,0.8381180997665971,-9.813234054565429,1.9006719585023562,-13.661273948580419,-3.0966007295745652
1776353295854,-2.348261892888695,0.9597734716232865,-9.613618075671791,1.4378713603903974,-11.342842220674108,-4.137679934095888
1776353295871,-2.4546540830314156,1.0245664079207926,-9.37808790283203,0.9157858942214917,-7.562252260349303,-5.779750045007572
1776353295887,-2.5944156049430367,1.0827755088485778,-9.19328546218872,1.3461921857605492,-3.965468667005064,-8.572738620691315
1776353295904,-2.5526667134940624,0.9720436090011149,-9.099013771820069,1.9126608614864324,-1.9278742540889897,-12.353822062183655
1776353295920,-2.586484811943769,0.9071009620346129,-9.07192995006144,0.5921108066956979,-2.837371785240721,-14.78901245885675
1776353295937,-2.7136769212700425,0.8411107787765562,-9.10320362472534,-0.6329410372237995,-5.655990432341526,-17.70528808349334
1776353295954,-2.6767164331413804,0.9003673429306596,-9.198971691131591,-2.18092699986585,-7.3302896446255605,-21.08666031702007
1776353295971,-2.61327008914724,0.8789690925277769,-9.197624952697753,-3.195627373482349,-3.855988418572576,-23.023220437299198
1776353295987,-2.28750902576223,0.7920296447433531,-9.318681774139403,-4.6422482061995325,2.422232887487346,-23.55388686222146
1776353296004,-2.163908218926191,0.7372622817672788,-9.25718071899414,-4.930228618401134,7.239366166394351,-24.882906778469835
1776353296021,-2.155827788323164,0.7263388097580522,-9.150340054431558,-5.387379155965611,6.4937707637647115,-26.022170379196915
1776353296037,-2.0856478982903064,0.7299301853135228,-9.271546513476967,-6.335728297220256,3.0391806098827376,-25.41085820319702
1776353296054,-2.1357764955498277,0.747587349491939,-9.565883095550536,-5.299218489253672,-0.6544906575811599,-23.847549138038868
1776353296071,-2.1053997697256506,0.7378609052475541,-9.631424365997313,-4.312259569281414,2.5453814116660873,-23.23464040532048
1776353296087,-2.0292343755424023,0.572511280027777,-9.595811200824379,-4.4251856481501735,8.618065463570812,-23.5311918511568
1776353296104,-2.173335241832584,0.4122495525315404,-9.389012032428383,-3.3722722871181574,11.265855743444309,-23.640249481634395
1776353296120,-2.2565337495230136,0.36301863476410506,-9.337685749816893,-1.5543800869222402,8.802303840016382,-27.13061787393619
1776353296137,-2.246807305278629,0.4098552778061479,-9.258228766742349,-1.4577307757324443,5.317715495299712,-29.665816754210258
1776353296154,-2.197576533641666,0.5060723300889134,-9.062353143420815,-2.602539422848516,5.659365826451982,-28.70237759064494
1776353296171,-2.2827204763114453,0.5657777339890598,-8.955362256732583,-2.4412696919212293,12.131488305642337,-26.913691065896582
1776353296187,-2.328509436931461,0.7383098911240696,-8.796447121539712,-1.2101690751614511,22.083586190538668,-25.808253977033992
1776353296204,-1.6774363691031933,0.6413447969529777,-8.981548252868652,-2.3200415181163194,37.50439797781077,-23.8294115706979
1776353296220,-1.2274758023366332,0.4991890003159642,-9.217527338519693,-6.884892155075383,44.535456181124424,-23.094375640525097
1776353296237,-0.3124418553456664,0.29089352894760667,-9.651026892089844,-11.820514915373534,41.73151667776703,-21.79037470720648
1776353296254,-0.059404521257430315,0.40222383307963605,-9.613467853546142,-15.535951701205589,22.82200306435062,-16.559539218149332
1776353296271,-0.2671016614064574,0.577299902543798,-9.29533830795288,-18.280316587074836,7.388287342189078,-11.951721995555834
1776353296287,-0.9307444340810179,0.8659507671311497,-8.933515166583657,-21.034141284944546,1.2253265455901787,-9.203028477300093
1776353296304,-1.096093986235559,0.9287986337754874,-9.028535044971107,-22.657935090297748,10.13749995482174,-4.827493181774034
1776353296321,-1.140685992155969,0.9492990585558115,-9.200319014087318,-21.927972283130973,20.726506149632588,-1.767173883462047
1776353296337,-1.1595403302296996,1.2280738412950187,-10.346392836761474,-15.906183812713422,26.332862024162456,-0.28908556882582115
1776353296354,-1.269075056181848,2.469018489274755,-13.812149961963295,14.741284804483993,11.276877961217417,-1.973352428347285
1776353296371,-0.9551353634938597,3.4789226039841767,-14.954333791461586,32.84560790721511,-10.88303388574885,-2.5683688402045886
1776353296387,-0.12868687792867423,2.3943492519333955,-11.726650678363441,17.704646045711357,-26.909384631624892,-2.796571009903415
1776353296404,-0.6947659329518675,-0.6575096036817878,-7.427861597552895,-12.21221858031095,-33.25440155922954,-3.3063242493607454
1776353296421,-1.098338404161483,-0.9097986036207526,-6.153247904205322,-18.93390080384794,-14.940987582984118,-2.6225070540002253
1776353296437,-2.2626687451466916,-0.5843367423780262,-6.644508741870522,1.3741862496823753,26.20697480756995,1.0344050424851627
1776353296454,-1.5475506367787717,0.9920953401658683,-10.177452566638589,14.105677645606361,39.21661711970624,9.250698928838549
1776353296471,-0.9813219441518187,1.9451372385118155,-11.362881663623451,13.99048565148045,1.8887428196735172,8.204920127281435
1776353296487,-0.6883313698597252,1.939002096757665,-11.567585321044922,3.058423387208779,-63.22447933530177,2.767248154022904
1776353296504,-1.6620234036549926,0.364066317186132,-10.174459814563393,-3.789877736935553,-59.022949939070955,-0.8733623086260731
1776353296520,-2.189645594511926,-0.07691570109389721,-9.656413845825195,-5.0796304687587,-13.6621780948718,-0.6738430914598919
1776353296537,-2.595313284435123,0.24495478459335862,-9.061903646087647,-1.104571362385292,49.29515205142326,2.1953909926504096
1776353296554,-2.0967206425771114,0.9937413538072257,-9.208548497772217,0.4199190696770319,48.15058993144755,3.731767768137554
1776353296571,-1.6858157826527953,1.1070169467881321,-9.353846611022949,-1.4433542947466251,8.172264139085957,4.926422495486144
1776353296587,-1.0377353207692503,1.0085554035142064,-9.44183410655558,-2.9951404038881413,-38.65363877736794,4.77487810016331
1776353296604,-1.0631737134084105,0.8994696634385734,-9.682002460590004,-1.802652980940561,-33.17005213807447,3.9490967035645435
1776353296620,-1.4049461465261877,0.8611624368760734,-9.788544434466958,-0.23165573745876725,-7.032993708169708,2.2171225201552747
1776353296637,-2.0673916722401975,0.9277512436144053,-9.768941908374428,-0.33285395463579176,11.17172976026601,1.6083862859678253
1776353296654,-2.247256071959436,1.2143071817491202,-9.626037996783852,-2.1936023368615127,3.7241435694765275,2.990954778587393
1776353296671,-2.2147847119435666,1.3049875696275381,-9.571718962097167,-3.226098341473657,-3.1480666318574344,3.8519586069622687
1776353296687,-1.9413969560049473,1.214007979606837,-9.476101117816567,-1.1125745298235488,0.2814031001134378,3.6778532430372355
1776353296704,-1.5827154736623168,0.9388243532273918,-9.376592111316322,0.20154906401014439,5.1081422396752725,2.3739812295392024
1776353296720,-1.4469943131826817,0.8349758562181144,-9.376292836108803,0.520486134686065,6.333450429132057,1.6683093498253454
1776353296737,-1.2723670834645628,0.8158221698716283,-9.58892728652954,0.931669178971239,1.5252215824686326,1.8998201058468085
1776353296754,-1.228822540770471,0.8750788070909679,-9.797971603503823,0.05160319975735704,-3.100770133176035,2.673776374901045
1776353296771,-1.2599471623525023,0.8652026521775871,-9.82460651245117,-1.1388943436250756,-4.769419925242823,3.01006991675332
1776353296787,-1.2846373669728637,0.8402131723497063,-9.687688105010986,-1.1176592854955059,-1.1643909061882043,3.1570619909943414
1776353296804,-1.298703447856754,0.8152236925218254,-9.44243207244873,-0.17994488218070315,2.309408194239079,3.206812662021891
1776353296820,-1.2527645573720336,0.8330304943040013,-9.386467608642578,0.7265209254336152,3.0801869312253785,3.9077198444594297
