ts,ax,ay,az,gx,gy,gz
1776353604946,-0.5361512420102954,-2.3615802241452037,-10.708665475463867,-5.173449947197995,2.6701676871417512,0.18666533475674613
1776353604963,-0.3070560706540942,-2.3312037905819714,-10.505607247161864,-1.2518302408907669,13.627730889566488,3.613404004915818
1776353604980,-0.029777590887248514,-2.2457608649656176,-9.526528405761718,-0.14225421747370673,16.691845105014355,8.979237329144624
1776353604996,-0.08529321494735777,-2.278681137792766,-8.701426658630371,-1.509653980524587,5.254455136980701,16.849933248448885
1776353605013,-0.30316541989110407,-2.335094368279725,-8.653841900634765,-1.2132325217259077,-10.965901155854029,18.49842331029356
1776353605030,-0.7963710349485278,-2.455552785436809,-9.088090226745605,3.774304051854278,-23.67469412561877,13.640773989560273
1776353605046,-1.319204822485149,-2.316988364355266,-9.527276593780517,8.67676923193978,-29.2676645369227,8.546977708462967
1776353605063,-1.4520830146238206,-2.221519427026063,-9.628880526733397,15.768516227349938,-26.123011292102984,2.8940512562944254
1776353605080,-1.3814540656492114,-2.2319940592892467,-9.505728194317221,19.27344146032032,-26.24621936699355,-0.6577536203745749
1776353605097,-1.2196958159849047,-2.159270329992473,-9.140912300872802,17.75297646427837,-27.70659748135961,-0.38186248292133734
1776353605113,-1.1240773871824146,-2.139667657769471,-8.927977990722656,19.19378779421963,-34.352596940024625,-0.47666177334141197
1776353605130,-1.2589008681699634,-2.300378590337932,-9.006238457489014,37.539238772767,-37.42952885922367,-3.107391147802716
1776353605147,-0.8369228255674243,-2.5737664924070236,-7.689576597484946,44.03256984310389,-48.454263557040896,5.624527165929862
1776353605163,-0.869394039452821,-2.0633523337215185,-6.534973431396484,31.93697418154997,-50.80909763190244,14.176299240303354
1776353605180,-1.0405796042844653,-2.1640584410518406,-4.819826632580161,5.828891121651698,-52.39769376491527,17.38343078678212
1776353605197,-0.7445964240476488,-2.7545287177488205,-4.838831192779541,-3.6161198588845447,-62.734133224597386,19.945304970859674
1776353605213,-1.8195932617187498,-2.353499939672649,-5.176713486590981,-1.7450637073450694,-87.22795656945016,12.399856683415894
1776353605230,-2.3587372558042405,-2.0353703940793872,-5.320065726470947,1.4729913393289567,-115.6126176655682,5.300666916244538
1776353605247,-2.845658310699463,-2.3084590209409592,-4.9622822158813475,0.02578668552029556,-145.9517988643879,-3.10128026292967
1776353605263,-2.457348728942871,-2.498049864904582,-5.127931043243408,2.261478408955572,-167.2315127707511,-2.0624268463041253
1776353605280,-2.7009581633418795,-2.157324748882651,-5.588665225219726,6.391367871972826,-169.32302597763572,11.217727669231461
1776353605296,-3.2128689903259278,-1.6029177192136643,-5.501427086749673,2.501909392033072,-163.91052453212916,26.150163001601076
1776353605313,-3.485807687322795,-1.538723187200725,-4.902427174377441,-16.853696682681562,-147.51688207118298,43.4162682139153
1776353605330,-0.7833522711604833,-2.243665646252036,-3.832069394683838,-41.8870230096953,-114.2035633001729,57.78708868045968
1776353605347,-3.755454941558838,-0.88435794595927,-5.56696777267456,-43.699553724836164,-111.45469219699874,59.00967205132445
1776353605363,-4.021808707207441,-1.0733500933773814,-5.862801315307617,-36.292169173727736,-109.72008369500396,65.10124456449202
1776353605380,-5.326948471722006,-1.0226229457028209,-5.177161814880371,-33.184511648547385,-106.32778828144708,59.20793878255158
1776353605397,-5.443516749572754,-0.37304625391215085,-5.0185459548950195,-24.647994374798294,-110.94515325472662,61.11756405183877
1776353605413,-4.782716506847739,0.2600705937258899,-4.620509928894043,-18.18343376879279,-135.15213597519553,77.51725806038958
1776353605430,-4.290708650207519,1.5948377270020544,-3.5474586723327635,-12.123853007923909,-181.16504403606376,123.27503806519032
1776353605447,-5.093514394378662,2.451213806384429,-2.606687057495117,-18.347821054189364,-182.1141944438854,135.1806588451695
1776353605463,-6.075735040935873,2.2456119580142198,-2.4548048896789547,-29.462171249011742,-168.9804646700029,128.96998149325526
1776353605480,-7.424120072937011,2.1793223168855533,-2.4322096115112304,-36.78721445458109,-166.24953647377836,123.0256132170798
1776353605497,-6.516119677844643,3.790021529421443,-1.7007810043334959,-40.56134817859294,-180.67290158560766,143.82669478716517
1776353605513,-5.756259341430663,4.904073480279743,-1.7335516395568846,-42.81927211441575,-219.2070940147704,179.34568654684745
1776353605530,-7.666832266235351,6.795493084064126,-3.0588918960571285,-43.19835444354063,-263.59757260057216,238.77245776021707
1776353605547,-13.507636853790283,5.662436563873291,-6.133645085851848,-27.857641992212564,-248.16079866120972,227.90533992278165
1776353605563,-15.472079315948486,5.869086240795999,-5.998522621917724,-19.713834982529818,-201.49213779850692,186.28506312093202
1776353605580,-15.033341861724853,8.219145246234536,-4.242824617004394,-30.98624258493546,-135.44915358144272,160.4950201357726
1776353605597,-13.533075830951333,9.49241161662638,-3.412784975079447,-36.346394045548465,-124.8092078358019,164.48077702593352
1776353605614,-13.314754567065835,9.737367789459228,-3.797653184210509,-27.41684207374745,-132.53174756049847,171.95135107214833
1776353605630,-14.61450562427938,9.128193689075111,-5.603628985595702,-7.329895201200992,-100.9831447653446,166.15853103327711
1776353605647,-15.905130541229248,7.597700277820229,-4.255244099725037,3.070922206503079,-90.06837952825916,142.99899880316468
1776353605663,-15.26468159713745,6.451925145831704,-2.7594667586728927,1.3320777065624236,-78.45295982573548,109.15662723942376
1776353605680,-14.318523028564453,6.595277385711669,-2.3446716133117675,-1.304994619121148,-67.22537875485263,97.48727636321365
1776353605697,-12.210130360633134,6.9819421228706835,-2.2417207957945764,-0.8382824036880347,-52.48283207291948,94.48350943040379
1776353605713,-11.254245347815752,6.703316904669999,-2.099116232476756,3.7959395298239396,-38.50581640825594,93.71322118637725
1776353605730,-10.926986739349365,6.340744406238198,-1.9818007164552807,6.1738357384180285,-31.36293776294542,91.80791942683469
1776353605747,-10.412233966937661,5.362114477649331,-1.5322892816957085,3.463218817237816,-21.980170296315503,86.58255150420814
1776353605763,-9.87563351985514,4.642656878772378,-1.1155482629638165,-7.642150105712819,-0.38854907803622113,79.12810353462373
1776353605780,-9.65970704215169,4.218285219031572,-0.9487018963802605,-17.161661374620977,16.03330900109299,70.61880797981172
1776353605797,-9.387364849743246,4.160523350414634,-1.1614869342528282,-21.213333005367126,28.934344475236912,63.972788030579196
1776353605813,-9.18131445388794,4.330512837329507,-1.488145932858251,-13.93507147297049,36.30797423146714,55.38953177233971
1776353605830,-9.04095379703939,4.371213681030273,-1.4757257194852456,-5.1658236141028535,33.413691815957996,48.06945752939155
1776353605847,-8.545054778179527,4.632480937194824,-1.1131540613036601,0.32552478813039787,26.81225251143814,44.30549395705385
1776353605863,-8.210614733776449,4.87145219039917,-1.1339535786284134,6.182351703652565,13.088631742340198,42.37532689383785
1776353605880,-8.129661959186196,4.8985371812015766,-1.248725766842626,11.57072294459512,0.9828294302887501,42.40539680165883
1776353605897,-8.295459839630126,5.331887681689858,-1.5602716597292572,16.675792452917534,-7.597089640210952,44.101011753682
1776353605913,-8.801832906231283,6.043414487567544,-1.6406261761654168,19.58697787907517,-12.52405598950976,37.256096695818705
1776353605930,-9.095422469329833,6.672939886584878,-1.6317979959350077,20.619965443864146,-9.467726482168413,30.624348426856923
1776353605947,-8.730006856426597,7.736563389587402,-1.8761562759399413,24.404923310163174,-4.026000364750656,32.6303442502384
1776353605963,-8.772804380145669,7.917476421576738,-1.619378001757711,29.31354974776685,-10.336021964369099,38.49270927523869
1776353605980,-8.984390782818197,7.75033063365519,-1.4024034032408148,32.92274123351206,-30.27231023175071,38.116464889713946
1776353605997,-9.16156229019165,7.182605564990639,-1.0577882940430194,38.85400579176485,-57.12477206683271,29.570935181355026
1776353606013,-8.914361553302406,6.7761898331791155,-1.107168337957561,33.612477641562045,-58.100355306742316,8.02481486905737
1776353606030,-8.354716915240884,7.089830835181474,-0.984017320715636,30.68055746863154,-54.210507932906694,-4.288078565185454
1776353606047,-7.221960254779457,7.892337304145097,-1.0064621575620025,24.18209863377526,-48.50939684402124,-7.647545101383483
1776353606063,-6.502651124462485,8.383446750640868,-1.4622589196687563,18.489243536049063,-34.492947082184635,-0.7295273292463316
1776353606080,-6.533328002277016,8.278252684241533,-1.6750436652803793,18.457954439461233,-24.8506392572834,-0.5178527765959077
1776353606097,-6.556521246337891,7.961468708038329,-1.6439188975678756,16.584768229396065,-16.11586208249635,-4.768798804915175
1776353606113,-6.177638833618164,7.888446141925454,-1.593490805905126,13.353579049113224,-5.3467950256910415,-9.198097080719343
1776353606130,-5.965752571216226,7.837569941169023,-1.6020203685151413,11.96954537419498,-0.47609929659109085,-10.511440005275244
1776353606147,-5.617096954455971,7.624635631018877,-1.8185460907533764,13.711031022910316,2.2146813678572297,-12.578059733956112
1776353606163,-5.288042694744467,7.523180751147866,-1.827075068841502,19.012862913295166,-0.33963414468664593,-16.141429188107
1776353606180,-5.07570693500936,7.631368154144287,-1.7332523643493651,22.73299374663431,-5.383844106183306,-17.024799751579554
1776353606197,-4.752639933013915,7.945607122039794,-1.6739959463257341,26.18990787238138,-10.686686437678492,-13.914370877143474
1776353606213,-4.470722687530517,8.195053592029213,-1.6689080486021934,31.654730274477537,-17.01919728891285,-5.759369187411077
1776353606230,-4.381687728771567,8.1334023147583,-1.6430210354126988,34.41560885021258,-19.827392000123158,-0.8251528057517132
1776353606247,-4.3833349114567035,8.083873436957598,-1.3100771478515119,32.575480755730275,-22.792071467860335,3.9781032363091184
1776353606263,-4.370315855407714,8.132505073657631,-1.132158183111623,28.741313084008596,-23.6002979976317,8.859405075251335
1776353606280,-4.458901316833495,8.109161607471108,-1.1240776794433593,25.25383044663113,-25.69702093130575,13.10802094184657
1776353606297,-4.77553448638916,8.142381155505776,-1.2250832811769097,21.840209474938188,-28.68640177817628,14.914493279193637
1776353606313,-5.007922269549965,8.255657406073809,-1.3593085770756006,19.470693908455704,-30.15775771408584,16.663528848262775
1776353606330,-5.11371605540812,8.266730588752031,-1.4417588967472315,16.410499367817778,-29.413673490810066,17.936570241621016
1776353606347,-5.275173860821128,8.251316746520995,-1.6127935818661003,11.794273328582346,-23.72548853492886,20.812450419958857
1776353606363,-5.274875754657387,7.9596742258369915,-1.8867801804807036,9.948005747809844,-18.768823669345192,22.139583496449017
1776353606380,-5.24764171077311,7.7982152513802045,-2.0349214082028717,10.734391040162802,-14.219206488669373,23.24322936820177
1776353606396,-5.195267380413413,7.441627672576904,-2.1071968092102558,13.503944809917407,-11.050575010994677,23.64105202886187
1776353606413,-5.093215119171142,7.241413143268227,-1.8169002963077276,17.208456708172026,-8.432051237941039,25.296611336497506
1776353606430,-5.067178176116943,7.24590168685913,-1.6494556715700774,21.605925448670288,-10.624885178520925,26.33339648646501
1776353606447,-5.129277781677246,7.391050747027993,-1.3712788547240198,29.941886170273,-19.709904208662476,28.897673189583113
1776353606463,-5.787084687805176,8.043320477294921,-0.8053492911741137,32.93972108378871,-26.53255114228424,27.925136214043338
1776353606480,-6.17943506938517,8.575283912226558,-0.43349984583109613,28.46722100771057,-31.203309411853052,26.63269708344226
1776353606497,-6.866420723724365,9.419687741199136,0.049380482305958866,12.011001207362375,-28.948090230941563,26.886611073384778
1776353606513,-6.991817620196938,9.294591873499751,0.02184687095321715,-5.586072774015867,-19.366494250025283,27.688190121546423
1776353606530,-6.821230167388916,8.814253996387123,-0.273387975134328,-21.891744959773227,-6.5232878531497445,25.768584238334558
1776353606547,-6.506542871204018,7.814974078479409,-1.2201450210571287,-32.600503153754616,10.267245374521655,18.014374634003925
1776353606563,-6.20562106552124,7.221810617175698,-2.21403783909902,-28.715218346284562,18.340715949905256,12.379349040432931
1776353606579,-6.011092180633544,7.139210659900307,-2.5194483345031737,-15.284848334106533,15.995292168172702,9.024451473902817
1776353606597,-5.657798382678628,7.211186931830644,-2.6681876742489634,11.582201077495327,-1.6910346698544472,12.413700623089863
1776353606613,-5.7591024559021,7.420678992572427,-1.9571102926392108,29.550895406330206,-17.55461581795015,15.912974728295707
1776353606630,-6.044311728668212,7.491307941547036,-1.464652573339641,39.75697046041888,-28.59388345077387,15.488978782736119
1776353606647,-6.571185731506347,7.868245065417885,-0.42302528663314876,37.48669071238751,-27.599226907607008,11.517765926639074
1776353606663,-6.739976948547363,8.204629814147948,0.11013298410624266,28.173382854522036,-21.632520497751024,7.945835684137219
1776353606680,-6.672789664459228,8.22228763591349,0.14559716926254332,17.60605568013681,-15.232126103903203,4.418866015620619
1776353606697,-6.6051534675598145,8.008305862537027,-0.00718267804570496,4.882938096135258,-8.66780631620143,-2.762477907217885
1776353606713,-6.431275156512856,7.791182284003495,-0.46432570366226134,-0.06436193976608796,-5.456868646807675,-9.079589029751391
1776353606730,-6.382193437957763,7.833978054156899,-0.6367079309325665,-1.5428098531899443,-2.785443351084995,-14.969023801979727
1776353606747,-5.820304235839844,8.087164295196533,-0.7420531693056225,-1.2553189734527626,-2.085722487128923,-15.476412942210587
1776353606763,-5.380220043182373,8.142530793109536,-0.6028897594176232,-0.21441015013471973,-2.8100572184196055,-12.487155038745119
1776353606780,-5.31153638305664,8.066215615192055,-0.5597943487305194,0.713225642049068,-4.814669074720511,-9.167198158687851
1776353606796,-5.45818123474121,7.819313568988442,-0.4697127304628491,0.9399213281490838,-7.423171679601272,-8.64436681451724
1776353606813,-5.666027281841635,7.618798010906577,-0.5835864354673773,1.5247490187554325,-8.648897791257896,-10.636848254852202
1776353606830,-5.670067497143149,7.653813210186362,-0.6747160284180194,3.4259178735199067,-9.249970659918297,-12.191029625958278
1776353606847,-5.495591220203042,7.887249625617265,-0.7546230933476239,8.113187271633578,-8.954261888670827,-10.281974677466788
1776353606863,-5.3568759924739595,7.997681008148193,-0.47509946500249206,9.430264602118186,-6.411811055045497,-7.143226558071367
1776353606880,-5.2989679933846,7.947703802058101,-0.27578232292495664,7.652843620632121,-1.7612394095686579,-3.604248563220239
1776353606897,-5.244200630408526,7.757215132471918,0.029927739947661756,2.31759567006322,3.006329961295915,-1.6002273048391278
1776353606913,-5.5084594696044915,7.794772417449951,0.09741371472142636,-3.877300316330308,13.39737763716593,-3.235427312662836
1776353606930,-5.347150132751464,7.736863249316811,0.2458545829772949,-14.476985511908472,29.108500638693897,-4.270034486058749
1776353606947,-4.748898992919922,7.587076007953286,0.15113383366689084,-24.825990812116117,42.70269103056739,0.103630298130078
1776353606963,-4.145860034289956,7.687482840076089,-0.575356659521535,-22.211747860124785,40.61051188023869,10.144233667569727
1776353606980,-4.070292459869385,7.657854010009765,-0.8646063667848706,-12.252385215272502,25.526199607711025,21.323466390638995
1776353606997,-4.607041960033774,7.466766205486655,-1.092354142120108,5.803499466525352,-6.823831544555938,31.122928330605756
1776353607013,-5.447556964874267,7.3196736100345845,-0.8355765255250036,14.466876831936853,-28.588286110749046,33.72477278170622
1776353607030,-5.893776299285888,7.250541037097573,-0.6616979952823371,15.607320347843052,-40.85475602986376,31.667567615022573
1776353607047,-6.605751433452963,7.294682961162924,-0.5373486351013184,8.272742198192368,-41.58890915808634,26.17346248440728
1776353607063,-6.88856708908081,7.549965882220864,-0.8111851577207445,0.6910157878588906,-31.34635406364063,22.05029414097673
1776353607080,-6.838437907299399,7.599196069335937,-1.3461398834228515,-6.3759593920921,-15.457559912554059,16.613636023923124
1776353607097,-6.729651953887939,7.592761652374267,-1.5994763465881348,-8.537036368126012,-2.931379307325603,13.105168484094444
1776353607113,-6.380547424316406,7.652467640796304,-1.8760064191404728,-7.996443970792428,6.517001944679217,10.984369987369744
1776353607130,-6.000916239055991,7.7513775123596185,-1.854907882336527,-3.209757754214636,10.453552444512095,11.70231934556011
1776353607147,-5.8916813728332516,7.713669420734047,-1.722329111535847,0.24788405348330597,10.020168403938323,13.208218109423365
1776353607163,-5.805939610400795,7.4142445756107564,-1.315314610113576,1.491902639036841,8.35271859073134,12.370572247349465
1776353607180,-5.76478868484497,7.3657614074707025,-1.005714407934621,-0.02657311777019906,5.853506269646777,8.19150990461976
1776353607197,-5.670965907287598,7.434894564929604,-0.9783304341856389,-2.0959146234744632,2.661397510804043,6.224720220847801
1776353607213,-5.429750090026855,7.552209861755371,-1.2069768388610334,-2.1015992618546178,-0.07399298674348197,4.568694752801312
1776353607230,-5.122394451904297,7.8905410683780906,-1.4496891052246093,-0.33285446156389425,-0.8854820524214376,4.487965331906346
1776353607247,-4.926668466186523,8.211812419128417,-1.495777487182617,-0.81567036874962,2.456096538505446,9.235846682488358
1776353607263,-4.808754034423828,8.405293256267905,-1.6633714572630822,-1.094295769665831,6.528103136514604,12.97284637553014
1776353607280,-4.78196890335083,8.051850405231118,-1.9259858171876518,0.67539493178366,11.54599168338415,14.454191463100846
1776353607297,-4.599859355053305,7.757363601031899,-1.9536687008179723,3.1030862076349037,15.203620309402156,13.859917193985547
1776353607313,-4.029591031646729,7.266551676177978,-1.8396447736877948,6.120787793568655,17.317715829230135,13.390189716838137
1776353607330,-3.543867369842529,7.349900405994057,-1.8582000557497143,14.674839016690816,15.690180787759061,15.296410136824072
1776353607347,-3.1953613906860348,7.611316130718588,-1.701229771014303,21.284599199167037,13.030739912708816,23.678122880582116
1776353607363,-2.8302456375122067,7.981820006671548,-1.2904746217589824,27.627785636074126,3.3883146939312248,34.485618289205206
1776353607380,-3.3485908814579246,8.325538751551509,-1.062426694433391,36.203492827733456,-18.031974323947754,48.47955233244287
1776353607397,-3.8913258857727047,8.35007756500244,-0.9931445569578558,41.24016652925465,-33.773963804108654,52.19229973128923
1776353607413,-5.007921685028076,8.2866312210083,-0.7597103334840387,39.9079313014545,-43.1430811376823,49.4056576820049
1776353607430,-6.051045713098347,8.528146897998452,-0.7987654558043926,31.910992141947244,-45.16044922603185,38.328193923795176
1776353607447,-6.449979272460937,8.783428650012612,-0.9169790897093713,23.30532603304094,-37.93171168775969,28.648876718876227
1776353607463,-6.90098701019287,9.224410083770751,-1.2158052382871507,12.408657382161454,-23.352778772299605,18.696437324521398
1776353607480,-6.770352797588705,9.29548736103475,-1.574037807818502,-3.6293618881379066,4.0071161723560405,4.992740644119206
1776353607497,-6.501305262811481,9.303718598285316,-1.7937055178768933,-14.382361778694408,26.129614377483094,-4.0058931416077845
1776353607513,-5.678148804529011,9.408913833728432,-2.356343200274557,-18.179502994925446,44.62842188591746,-9.349025478356406
1776353607530,-4.7578772491455075,9.520393264007568,-2.662801158905029,-11.391966648732133,52.622984139593555,-7.891230883043906
1776353607547,-4.428225315801799,9.48133784942627,-2.5354592658445236,-3.1619972295564986,48.58703218922219,-2.5421818949267596
1776353607563,-4.065204196819662,9.444975911712646,-2.097769128716737,4.645055413948408,39.66131024599826,5.9191674394590486
1776353607580,-4.22307274556905,9.18056626586914,-1.411083041846007,9.763933857225295,23.849736506120564,13.240158635303283
1776353607597,-4.46578552338928,9.034671355769037,-1.1944077916018665,11.020717692811612,12.535374466738118,13.85848626935443
1776353607613,-4.751292902319133,8.81649797592163,-0.8628105694092809,9.628385338051807,6.728842396221278,12.500950313321253
1776353607630,-4.841823944854736,8.614338157764077,-0.6579562514707445,2.5293793456578055,8.691149341463595,9.170836941968176
1776353607647,-4.824765258026122,8.518570091357827,-0.6112697574891149,-3.580668402327828,13.743528209207591,6.80390916340748
1776353607663,-4.699967788751423,8.371326689258217,-0.7064388350889086,-8.969035587845564,18.04972598560062,4.671707238976621
1776353607682,-4.448875597381591,8.297106437793374,-0.8996214199341833,-12.172775945401419,21.31919410731315,2.104114905903298
1776353607697,-4.263175915637612,8.303841299006342,-0.8858547603882849,-14.239711570331398,24.383442365223484,1.078682810996828
1776353607713,-3.912125512695312,8.50944219752848,-0.7745240909300745,-18.03540820155298,26.364550686816727,3.168914930525252
1776353607729,-4.028992481231689,8.871565198627113,-0.8604166600100696,-19.45182892596813,24.30081927438113,4.5857971195962
1776353607747,-4.302978641454875,9.29578722076416,-0.9650124682553112,-18.31167910819624,17.026949553620813,6.282768291056446
1776353607763,-4.87444465021342,10.154258738055825,-1.0996870422914624,-15.880251291982177,2.33434179980421,8.867619231501923
1776353607780,-5.393537205395102,10.437072640118002,-0.9973347751893102,-18.754640781533663,-3.8644497422937527,8.661564377073685
1776353607797,-5.515043231908977,10.286986708068847,-1.068561982318014,-25.8957384550181,-2.1705547172809507,5.314644044607323
1776353607813,-5.420323213250935,9.717018828913568,-1.7414828709475696,-30.914167013718902,11.772881176101865,-1.1984858231427327
1776353607830,-4.717774663598835,9.050381550598145,-2.2818239658631385,-29.929322037294764,25.72945579212685,-4.7093189563017654
1776353607847,-4.21394455947876,8.83535289851725,-2.337039949389547,-24.24273876077393,34.05384446572827,-3.2751081504196717
1776353607863,-3.5739439436763525,8.6511478392452,-2.1968298799928276,-10.808618120967914,27.958467537193,4.265670848952757
1776353607880,-3.8316201896116135,8.63708307353556,-1.7630301744323222,0.5080781355633848,16.49803336467337,9.733840897515865
1776353607896,-4.1612718306943774,8.62526170283854,-1.3660416847229002,6.538493134902662,6.306501917761771,10.574790863600759
1776353607913,-4.684405185699463,8.396166531482338,-0.6335653220579027,4.328512858185106,1.6050596636769117,6.142547495603846
1776353607930,-4.86845914606303,8.122329132080077,-0.1548749198913574,-4.286871329249654,6.226603645511432,-0.4165684883631704
1776353607946,-4.866214289745688,8.134000280651449,-0.16100976938456296,-13.130685217059966,11.677311461687754,-7.760647057623371
1776353607963,-4.714781619262695,8.65743378764689,-0.5705684023316949,-18.836505721378142,14.869980936372665,-12.714014649385215
1776353607980,-4.335450293731689,9.193734959521889,-1.2156556737486273,-17.196947839420556,14.217729460261358,-12.2709146647171
1776353607997,-4.2169376038149,9.32152605765462,-1.4782698875427245,-13.260388801851215,12.183658144296542,-10.299804032521461
1776353608013,-4.024802336065471,9.227553057971596,-1.7678187969483434,-7.286170037681863,16.172877086593033,-8.249026927620438
1776353608030,-3.790320503234863,8.872463024249672,-1.7140985318724065,-2.7337042412353254,20.407802692770623,-8.218516472597992
1776353608046,-3.692009182086587,8.75858997683227,-1.5390230469301343,0.8237911435076477,23.313180750586458,-8.296828860300419
1776353608063,-3.4726398704528805,8.685116159820556,-0.8161231986448169,0.38535030834883377,25.38943189977069,-7.125533806800095
1776353608080,-3.442562419836223,8.681824717059731,-0.28790274963378903,-2.1315257357030286,23.149976795463587,-5.641067322778694
1776353608097,-3.512892385864258,8.653991538238525,-0.09621654082611203,-6.877734543712033,19.136537148596585,-5.2222546370254985
1776353608113,-3.6788401961728927,8.546402101135254,-0.06598989099711179,-14.162992324252876,15.684098504303165,-6.93532114926488
1776353608130,-3.807678465270996,8.621969675555825,-0.3633195174068212,-18.362050045777792,13.378324824476179,-9.412376336681922
1776353608147,-3.838952724456787,8.774450393787026,-0.5547065971374512,-22.18269052784826,12.381261493400533,-10.43799924999833
1776353608163,-3.896713131769001,9.215282774463295,-0.9461584224425256,-27.008767299143162,10.086929234206966,-8.636898856433476
1776353608180,-3.879803205761313,9.498994502148031,-1.5631146280702202,-27.877145597387536,5.836028669334361,-2.856441673403397
1776353608196,-3.986196711078286,9.417743036872148,-1.939901675945893,-24.84793108727749,1.5936897465863678,3.3347973870198246
1776353608213,-4.643404190008342,9.03436974247396,-2.3214777116637677,-18.471435525335547,4.665695818733363,7.685520953168754
1776353608230,-4.788852525384724,8.29231803447306,-1.8514659251891075,-12.885079298469122,-1.375470218524632,6.413116474950616
1776353608247,-4.766556522424519,7.862259561267495,-1.5204678379334509,-8.993155547125818,-13.948115426737921,-0.334220152552353
1776353608263,-4.515464331054687,7.764396568408608,-0.6480806080140173,-12.572810733578956,-22.228249597159536,-7.381365799238917
1776353608279,-4.436754366955161,7.981669200024008,-0.49769452397450803,-16.973537474311314,-20.10598175598964,-11.225421023557834
1776353608296,-4.492569485418498,8.086265885052084,-0.5922654164854437,-20.32574992272397,-14.47660985150412,-15.830527514824484
1776353608313,-4.386476716613769,8.390779577746986,-0.9597759558413177,-22.977692103839185,-0.8065820550069774,-20.03180760915059
1776353608330,-4.180725303705036,8.782381186786294,-1.2651859032562003,-22.99736134110153,12.496159789392134,-21.276869132573875
1776353608346,-4.029291756439209,8.977658259692788,-1.2701242729738353,-24.235157250795215,30.06699133020554,-19.09840249491311
1776353608363,-3.892073781530559,8.97646057434082,-1.1077667422421276,-29.899740487999438,52.00266294407841,-16.00437119712694
1776353608380,-4.115183156475425,8.866925263866781,-1.2153563620084895,-30.33136404731464,60.32875916497233,-14.816840357082674
1776353608396,-4.275145754894614,8.835950279888511,-1.3003504113461821,-26.619658252316704,62.21183548895568,-14.59132629370907
1776353608413,-4.697424241748452,8.7971958940804,-1.1710639235565439,-20.96652241216142,60.11743311205214,-16.439643785006222
1776353608430,-4.961683373205363,8.872911937060952,-0.7736263018401339,-19.752130145658786,59.288965316675444,-17.79510165598442
1776353608446,-5.001486975805461,8.8619878074646,-0.6260838071960956,-20.349466047069544,58.26348071468973,-18.784072066667246
1776353608463,-5.2043967355474825,8.890121430537103,-0.3678093031067401,-22.803742553604593,56.0738450101887,-21.690531001919236
1776353608480,-5.376628448431194,8.87395881576538,-0.22655082063563167,-25.84193534737862,53.50229586315183,-24.991388965509856
1776353608496,-5.358372660772502,8.870966063690185,-0.10579378585815429,-30.318352536945763,52.461306731750184,-28.860458903890297
1776353608513,-5.112668007659912,8.872911937060952,-0.039653745800629255,-35.544775723799084,51.56377206348632,-31.943852182044175
1776353608530,-4.761018762041628,8.856301578521729,-0.09846154327392577,-38.21417757598015,48.85696809541027,-31.3498681959686
1776353608547,-4.66076244430542,8.831163045611977,-0.231339516216889,-37.64645908235786,45.77194240204476,-30.52827840108611
1776353608563,-4.504989698791504,8.827721380725503,-0.441431077221781,-33.70095591207039,41.2834323625521,-27.706033990753085
1776353608580,-4.345774703869223,8.817395801544189,-0.5051767329560592,-29.11500297878375,38.35780279384718,-24.594768418143676
1776353608597,-4.229058541980385,8.743177303645014,-0.33010062695927916,-23.533158945637766,35.30448283860887,-17.450190763277117
1776353608613,-4.157680820465088,8.645462779346108,-0.15158267341293394,-21.00396550919143,31.83006806066093,-12.682784463178978
1776353608630,-4.138976704517007,8.38793763231933,0.021548180267587303,-18.783974736471574,25.46809348089443,-8.15121093474304
1776353608647,-4.305820879143476,8.274509990581869,-0.0405519002167508,-13.253258084357721,10.600638860741027,-3.4023133800785774
1776353608663,-4.423137929534912,8.266281091418861,-0.08125278045013547,-8.718658782119467,-0.8218881887718588,-1.5686296757998852
1776353608680,-4.628141446685791,8.27945095411539,-0.11926087793558836,-5.796158293828058,-6.647968260693273,0.047993177976740846
1776353608697,-4.4843391249507665,7.992294638934731,0.06150134740620851,-6.237242945804196,-1.710906251470953,-0.5663867668166961
1776353608713,-4.32856637943685,7.959374366107583,0.2150293096680194,-10.888178725741161,5.451580372842792,0.35421435740880175
1776353608730,-4.127154164776206,8.100182766723632,0.11477218821421264,-14.144408233294918,11.339708871392364,2.9308546634199817
1776353608747,-4.20077586582601,8.280046581920981,-0.2109889482360333,-11.441657982491268,8.369804308940127,8.350021519782832
1776353608763,-4.368969701495766,8.421456455561518,-0.34072496989145873,-6.496389714424589,1.138208016335195,12.851646376255557
1776353608780,-4.874445526996254,8.628853005328773,-0.43679212884213775,-1.9587311277684032,-6.862829363395773,16.52407175333675
1776353608797,-5.468954557690024,8.555828685650228,-0.37873251938764,-0.3755748135426646,-13.948535483371877,17.92000874043103
1776353608813,-5.70074437495768,8.511239017817378,-0.40940866654980923,-2.170710530971392,-12.622819671134497,16.32296878605677
1776353608830,-5.910834401592612,8.326136132922768,-0.5895720857482403,-4.813207841124952,-6.578037795762921,13.227337516457524
1776353608846,-5.616348181915283,7.87168673030436,-0.6401497419495135,-9.143360798484506,14.195053232216916,10.34797308786933
1776353608863,-5.239560111126304,7.447014626312256,-0.49260699157714843,-15.081590442143415,35.26850481715583,8.419043996440395
1776353608880,-4.467130800518393,6.69718059387207,-0.38277247896082695,-18.821716654277772,51.881666142931635,7.086906098835912
1776353608896,-3.9875425727292892,6.577920592719316,-0.46956243527196345,-11.895779331158844,53.62311849447477,6.724090718993065
1776353608913,-3.909581673431396,6.790405405536293,-0.30032226888705044,-3.115304348842999,42.50683877121186,9.902422772836472
1776353608930,-3.955819400732219,7.217171851459145,0.27802685044873504,2.577795568476264,26.285875445314645,13.818817384428641
1776353608947,-4.246715194702148,7.691522470855713,0.6274305090973153,3.2591701174348584,5.051646756842335,17.992284094680812
1776353608963,-4.499752090398967,8.016236655536293,0.5419875469483435,1.7162843851121035,-4.311735779149439,19.852335850972043
1776353608980,-5.23836388707906,9.12310717959106,0.1348233348570764,-0.5041135309153097,-10.357176767775922,20.990733725221823
1776353608996,-5.733962169426679,10.018685900005698,-0.46582160477582363,0.6771915917004906,-13.528045986177444,26.725365675006408
1776353609013,-5.796212581634522,9.945813556018472,-0.6060321125639602,1.6958819697310406,-9.409045765687894,30.561886346897154
1776353609030,-5.822548507635295,8.751406202808022,-0.5597940930021926,-0.5315335387817375,-0.9793078274413739,27.895305362843306
1776353609047,-5.5081601943969725,7.708133413916825,-0.24630364191904663,-9.550288101308235,16.22720099615673,16.168411850423137
1776353609063,-5.175815076446533,7.579743765369058,-0.28101949292607603,-14.206021662250311,24.268912045673417,9.982196821021283
1776353609080,-4.509477950121462,7.943212335857749,-0.6394012251371517,-11.123196997344838,24.918095913073742,8.828296978676512
1776353609097,-4.183718640302121,8.402751170569658,-0.5892727374754846,-3.3643445719258884,14.974013255168423,13.843935405101364
1776353609113,-4.226214550726115,8.562264271655678,-0.5654806872712448,2.6429604823566515,4.091568473235486,18.601917751692177
1776353609130,-4.750545298822224,8.677935308405756,-0.45594610744956876,5.836211376894659,-4.088749312655563,20.32686324355868
1776353609147,-5.415983138220012,8.700529417529701,-0.43754053605664517,5.89873962431201,-3.9962139097802303,15.270359795329643
1776353609163,-5.516090695135295,8.789564376288652,-0.4040217128144577,3.424314273168835,1.9590519332159824,10.699452061237247
1776353609180,-5.399673223932087,9.03975844977498,-0.2997241933960467,-1.017338747626828,13.171064441659436,6.961830394094169
1776353609197,-5.037550222833454,9.047689827296137,-0.2519897612640634,-2.5556535892909635,17.838287234559118,5.221276212426894
1776353609213,-4.738424068395793,8.996512597766518,-0.24301150503847746,-2.313850378520526,17.474984349964263,6.037509004565982
1776353609230,-4.241626931652426,8.922441983905435,-0.18944084103368222,0.23288863996480744,10.248514434496542,8.897595224221815
1776353609247,-4.196137392370402,8.833856522479653,-0.13706757011990994,2.920577363153228,0.33495845331294904,10.70151477836659
1776353609262,-4.326172470037639,8.821436601367592,-0.08843560462631285,4.037131011776838,-8.31509107859374,11.000213464923235
1776353609280,-4.717026475580036,8.858696364703773,-0.09816215846855193,1.1580915507827485,-10.321549647291489,8.909523295833596
1776353609297,-4.9700636635378,8.842835947749018,-0.21981727459691464,-2.868474118843432,-5.500123381047719,5.971505044634741
1776353609313,-5.034108265686035,8.804528721186518,-0.3078042221402749,-7.512046101081478,1.9183393100076518,1.4876946021778785
1776353609330,-5.049520646612346,8.934412992206216,-0.5144537529325113,-12.212805122805925,11.977503398351693,-3.489474918180991
1776353609347,-4.783315057262778,9.013420477947593,-0.6757630897855386,-13.715789957214524,16.645929158318946,-5.86913971888329
1776353609363,-4.564095967754722,9.007585195922852,-0.7378630241394043,-13.019915770421637,18.204530515591664,-6.782542197249565
1776353609380,-4.158429008483886,8.979455079981685,-0.8411126784726977,-9.462319533666701,15.033101221678201,-5.640450471319277
1776353609397,-3.85301836694926,8.927529662433265,-0.8858545777251944,-5.401757557942134,11.01183076292778,-3.4165432254406527
1776353609413,-3.752163206537068,8.864234125086664,-0.8704417949400841,-0.8967456746930234,6.199622263855765,-0.9673265016984078
1776353609430,-3.6981434470579027,8.788515159496665,-0.6889310893185436,2.4087614065665535,1.778575070012385,1.5303766677446997
1776353609447,-3.7648824028566477,8.80976603731811,-0.4329017703400925,2.6689852106416927,0.2734449692350209,2.7951400852722976
1776353609463,-3.841197873035073,8.831612542945146,-0.36317053739018734,1.4319965439305402,-1.2500340078607595,3.3563658437582555
1776353609480,-3.9630028824955223,8.973619213435054,-0.33563688950482756,-0.4986010346465805,-2.161559998474279,4.645275260662317
1776353609497,-4.038270012664794,8.999954262652993,-0.3968388521056622,-2.4472704399939085,-2.1386564531965218,5.133007116461881
1776353609513,-4.128351265606284,8.945037262073159,-0.49634804126899684,-3.7354577778366536,-2.182128045942714,4.790134608335002
1776353609530,-4.283077716937661,8.856452969691157,-0.8131304465696215,-2.6634414449131696,-1.6208831842714215,2.837742749890017
1776353609547,-4.32886623916626,8.872463608771563,-0.9096467375272884,-1.8337395197308162,-0.6644432036972205,1.019871146983316
1776353609563,-4.281580464117229,8.910320753479004,-0.906354856375046,-1.2270554372238383,0.4051652741004226,0.004097579893478744
1776353609580,-4.069843254797161,9.017461862292885,-0.8684963964933529,0.01887186603759812,0.9898394455330046,1.1129044066161191
1776353609597,-3.9944259025022384,8.956708995166421,-0.7546226184235886,0.8824277839236783,0.6114214590266165,2.1918226456959014
1776353609613,-4.034828055517376,8.888773523059486,-0.7294831356657668,1.8197459562253409,-0.24862019312935996,2.330662462275689
1776353609630,-4.087949989373982,8.791360612055659,-0.6838434473233297,2.8463613814055155,-0.6255912200683368,1.7977606445041276
1776353609646,-4.198531594030559,8.75978590861857,-0.6235398583343252,2.8569300319290525,-0.8790386760740297,0.891826551108439
1776353609663,-4.21050260233134,8.74542069865763,-0.5612904325071721,2.1205035179299205,0.13625747146499423,-0.30537730422402054
1776353609680,-4.064605646404623,8.77759278346598,-0.3758893683835864,-0.8121829702089466,1.971591520201891,-0.9129711092315059
1776353609697,-3.9728777952998873,8.788664797100424,-0.5111619813781232,-1.444080002345939,1.7187532850536515,-0.610084129331469
1776353609713,-3.9426512916013596,8.801534800067543,-0.6057326181607321,-0.500626292457195,0.5001959371786314,-0.22444906079118399
1776353609730,-3.832518015234172,8.84911955806315,-0.7032962992794811,0.8523636924356622,0.4503234433239321,1.0501827794678922
1776353609747,-3.7090678689152,8.871566367670892,-0.630722463314794,1.1151075695102715,0.25147870733828964,2.9958272647865507
1776353609763,-3.73824632486552,8.893711563983558,-0.6380547058990225,2.2774501659994124,-1.32361403496372,5.012268581843096
1776353609780,-3.9410049856990574,8.85480520248413,-0.615459135470353,3.2114723451397205,-2.8547219598364344,5.764908470827957
1776353609797,-4.138227347454428,8.78507407913208,-0.47180714545883234,2.077744399291525,-3.500931706740041,5.272980317557067
1776353609813,-4.215141368047893,8.767417426410317,-0.505176294564642,1.0729224002055686,-2.6457053646293502,3.972035040118385
1776353609830,-4.268711630193889,8.74601924907267,-0.6197987721098587,0.7331204889974342,-1.533277683872957,1.6506392235556993
1776353609847,-4.146158140453696,8.877550702777505,-0.529866718380712,-0.31391279953071505,-0.9729267232092894,1.0538821806771002
1776353609863,-4.112789539337158,8.946834082362056,-0.5846338986936956,-0.659154022597839,-1.4693602400114487,1.8506585386351724
1776353609880,-4.24536845626831,8.906879088592529,-0.8265978309080004,1.6919257960977223,-2.337248899069697,0.536884671831325
1776353609897,-4.291755821172893,8.878149253192543,-0.7887395536893979,2.06668162727022,0.19801406758869255,-1.422877921223456
1776353609913,-4.187757686559856,8.87336143439412,-0.7009021706845611,0.5681174193585009,2.4470405614396555,-2.3634789599166615
1776353609930,-4.029591031646729,8.934113716998695,-0.6349121335569768,0.5074347637600813,1.947318308552135,-1.9841644043600035
1776353609947,-4.004451329693198,8.960598988342285,-0.7074863348478451,2.6844598579800025,-0.26847349865375075,-1.6748391173935835
1776353609963,-3.9854476462766524,8.913613365283608,-0.6736687478547916,3.1992986001612307,-1.6942663098272153,-1.8715358656069627
1776353609980,-3.936665787450969,8.871565198627113,-0.5168483564514667,1.2633452995011738,0.46038207081553945,-2.327277463211713
1776353609997,-3.858405905206501,8.934414161249995,-0.5146034636015072,-0.04483640328057847,2.1048978163369108,-1.9346839526914923
1776353610013,-3.8386531569883227,8.994867168647051,-0.5392937412871047,-0.6883482254620304,1.010821253054755,-0.8115843148003655
1776353610030,-3.84987626953125,8.97631152125895,-0.5919660682126879,-0.04036433692151262,-0.052976921554175854,-0.3292851807944601
1776353610047,-3.9422020865291354,8.90029561854899,-0.7362165355740115,0.5393671254295074,-0.8721963739904107,0.09373906363398883
1776353610063,-4.044554207500815,8.845527671051025,-0.7694364854674786,1.2870298342218394,-0.26302925091586876,-1.1802627717154328
1776353610080,-3.973177362768352,8.857648901477456,-0.7381620070859789,1.3098693464761273,0.5221984310944754,-1.3905794507423466
1776353610096,-3.8516719207763668,8.897452504077553,-0.6326673503048718,1.5943236735187094,-0.03816533617388586,-0.49246240213003156
1776353610113,-3.8943189301088452,8.901044975611567,-0.6175542445860803,2.017886755839649,-1.2092489206142034,0.35361100624516634
1776353610130,-3.982006273651123,8.901942801234126,-0.6090249742370099,0.9507968035767423,-0.3934771128832382,0.09696632801681986
1776353610147,-4.052036379949748,8.824129493713379,-0.6229411252561956,-0.4148232416280999,0.7164498115024314,-0.747634320818594
1776353610163,-4.034529072570801,8.902989095416665,-0.7302311775540933,-1.0266744422834717,1.8809892743050833,-1.3198316042674139
1776353610180,-3.995622711071372,8.906131485095619,-0.7966704562865197,0.2525697233364934,1.4315060509707687,-1.4719084341803923
1776353610197,-3.9125744255065915,8.942492838287354,-0.8071448693539947,0.8634248102705276,0.2677334903458622,-0.6795958182883352
1776353610213,-3.9380128181457517,8.894759027209878,-0.8105869726318865,1.979367477128539,-0.12359792928178714,-0.47415456030748837
1776353610230,-3.9444478196293113,8.893563095423579,-0.7700346705563366,2.180331706191001,0.44063823508085403,-0.3910331591404166
1776353610247,-4.014776616613567,8.889073382788895,-0.6643906318997964,1.5649115982921653,0.4429176506337871,-0.27955206548751144
1776353610263,-4.077025859777629,8.878747219085692,-0.6988072807645425,1.2540651001315364,-0.13190802834587126,-0.7345394607975044
1776353610280,-4.075978396551311,8.870517735400796,-0.712724052838236,0.9461926157459191,-0.14410389139788438,-1.4416235888439675
1776353610297,-4.0300402367189525,8.858249205458163,-0.7594107294829562,1.1275585774803816,0.4012299111997316,-1.9034614504480716
1776353610313,-3.8964129797786473,8.846576303321122,-0.7621041698180139,1.827092678451336,0.6058755588639776,-1.4725867573423392
1776353610330,-3.9133226135253905,8.974816314265132,-0.6464345213074236,1.4295744948178302,0.9676925571492383,-0.9107700807714694
1776353610347,-3.9371155770450827,8.91870221285522,-0.6141128719605505,0.9218258091601927,0.8214297123238216,-0.7667003669998614
1776353610363,-3.993229093933105,8.886229683795571,-0.6699274789672345,1.1179525567429933,0.04425738466586122,-1.0210956718354522
1776353610380,-3.9906849624082446,8.881890193286537,-0.673518854522705,1.0723458895509372,-0.4968514390019994,-1.173499070168122
1776353610397,-3.947439987182617,8.917653580585121,-0.6875845700804144,0.6182901213715634,-1.4209694169589662,-0.8045721651219955
1776353610413,-4.023754580578208,8.978405863189696,-0.8578722362242639,2.2800661284515273,-1.579146139409295,0.08755165929789774
1776353610430,-4.101866578784585,8.949078646418451,-0.9027632981564849,3.232129825397601,-0.0661998476222032,-0.6837689571495071
1776353610447,-4.05083986364156,8.811860963770746,-0.6293758344788104,1.620968348192635,2.099595881993688,-2.197825528202696
1776353610463,-3.819799111175537,8.948927839770912,-0.49619807487167417,-1.3971508397758392,3.655500168317899,-0.7954251010803204
1776353610480,-3.790919345910847,8.948031183192134,-0.537947039385885,-1.4590099420979405,0.4564174128066115,0.6805845948924002
1776353610497,-3.8804029252201317,8.939052926966548,-0.7420528039794415,-0.2535044987574331,-3.6791569553950616,1.4526945784366176
1776353610513,-4.070890425762534,8.861838169860839,-0.9754870274532585,1.8062975271929973,-4.866359092585522,1.8229149505568154
1776353610530,-4.15977545465678,8.802881538501381,-1.0178346154477447,2.167629688768893,-2.62589866980996,0.948841768648532
1776353610547,-4.080168249456584,8.795250020709632,-0.9738411599423735,2.4154835933703156,-0.02822330214584472,0.5443460131693293
1776353610563,-3.9558196929931637,8.874857225909828,-0.8421606531556696,3.556122409998095,0.9611685525531125,1.3524092587308476
1776353610580,-3.95821389465332,8.857799708124995,-0.7463925136841834,3.4088974689950584,-0.59604803722624,2.298336457594488
1776353610597,-4.149151184789837,8.754249317279458,-0.6603509645875543,3.017112909004661,-3.0555512926627886,1.74959991344931
1776353610613,-4.237287733404338,8.707263109698891,-0.7272384620115161,3.1335721166650212,-3.46545228909641,-0.3699295021110904
1776353610630,-4.163367341668904,8.753502298304438,-0.6898294994629919,1.7629249721897702,-1.5677010902378807,-0.9543534111436149
1776353610646,-4.019714657537639,8.868422224426268,-0.6720221131589263,0.19683628684368848,-0.7021556129517699,-0.12482426840292178
1776353610663,-4.031685081316531,8.93830298538208,-0.891989829077199,1.119378572175645,-1.2568709204982365,0.8907434858773159
1776353610679,-4.0675986907407635,8.927977990722656,-0.9427168306212872,3.0393744165004364,-1.927627940392046,1.1489951261904665
1776353610697,-4.106654105322063,8.864831506457925,-0.8340797841612249,3.5736047060655656,-1.7453715994662489,0.36967075533542326
1776353610713,-4.093934909002483,8.887576422229408,-0.6751646489683538,2.807582982392768,-2.4879559558889706,0.43351349400288447
1776353610730,-4.153341329956055,8.881890777808428,-0.6771099378172308,2.4778948737981303,-3.7151068023177776,0.2292448941251643
1776353610747,-4.267065616552531,8.801235524860024,-0.7444469325743616,2.5367480525551915,-3.239093416699841,-1.8731110779842968
1776353610763,-4.323329355566203,8.79076089259684,-0.7558192443296313,1.8348078040056885,-2.1116846764943764,-3.1403342173867452
1776353610780,-4.327519208471477,8.77849060908854,-0.7202058599609881,1.1870166548658119,-1.148029081309733,-5.4443241506233
1776353610797,-4.386925629425049,8.903288370624184,-0.565480066216737,0.2622203537468983,-5.0585106700713744,-7.441112025229956
1776353610813,-5.814019456481933,8.666262406268716,-0.2540847973145544,-0.23216439978894807,-14.238687041955897,-16.833552747271902
1776353610830,-6.254851252636313,8.108712110137938,-0.06808467131927609,-1.2501698645922192,-23.022513512720103,-35.709997999821695
1776353610847,-5.850380809673666,8.628103063744305,0.5322613949649035,-14.497144815243765,-18.402155209036813,-46.03736696828604
1776353610863,-5.042786954443156,9.176078306800127,0.5306148333342745,-28.483140471118578,-10.823288513531455,-44.81988233363668
1776353610880,-4.817882220514118,9.321226782447098,-0.0695814492156729,-32.57101722710767,-1.659205347991953,-39.19671736355941
1776353610897,-4.891055301013589,9.138968765589594,-1.083376251220703,-25.225809595561156,4.436414479145674,-35.35531652150669
1776353610913,-5.019742763464152,8.872612661853433,-1.329680002737604,-16.555719434856,7.313337968879235,-34.68768260561087
1776353610929,-5.059845349010825,8.780286260333657,-1.1680707330899311,-9.555146927129051,8.88666350645521,-34.26766353769552
1776353610946,-4.918587743322551,8.666710734558105,-0.7613558722013607,-2.28928218807599,4.116418408983285,-32.24770339255595
1776353610963,-4.687547575378417,8.613440332141518,-0.4522049846924841,1.1428882967422405,-0.35306138946039184,-29.316227181921494
1776353610980,-4.601056455883383,8.584559105572104,-0.3420715256622061,2.14871582774007,-3.79575383405588,-24.599720305291935
1776353610997,-4.55811163264811,8.505702426478265,-0.48377848255317657,2.8886607429354045,-4.893702047380375,-18.395103038718776
1776353611013,-5.329043982696533,8.257901970130204,-0.6702267176421359,3.6108132287862675,-3.434916007421164,-18.499198536764354
1776353611030,-5.776011505126953,8.09569363861084,-0.7903857499938458,5.720687691707179,-1.6215419773612103,-22.612302596452892
1776353611047,-6.197540050396323,7.908347358703613,-1.0589854314057157,10.408464658253548,-0.653603373319293,-28.94828147623832
1776353611063,-6.620266281017661,7.791032061877846,-1.3787607714446262,14.654795826571414,-2.0529358715655692,-34.75028470444862
1776353611080,-6.8569935546875,7.7591592522770165,-1.4413093994140624,17.027285940437437,-1.0695730461913235,-41.8811217262524
1776353611097,-7.4872665572017425,7.799709873852133,-1.8122607634061947,20.484230802035775,9.153081011447082,-54.12686543633072
1776353611113,-9.10440072555542,8.968680003467203,-0.05536547499969601,3.470192013493576,55.54440631176975,-71.03874850055162
1776353611130,-7.43130267791748,7.446866157752275,-0.7145197040833532,-12.384371790793828,52.733930317376654,-69.01654122317511
1776353611147,-7.810484950366615,7.568522698652743,-3.052008420153707,7.938512867573319,42.104267421531304,-77.8162700818744
1776353611163,-8.192509752765297,8.230219597956538,-3.661931146948039,30.456752660097735,36.00523634179008,-82.99170249147899
1776353611180,-8.222287051391602,8.128615080481767,-3.64472274945043,51.901917653820725,26.092396676695692,-88.61207391418573
1776353611197,-7.9738880446285005,8.025364549365639,-2.9426233318053185,67.77162996391357,16.30437871868329,-92.81756482013515
1776353611213,-7.431901228332519,7.921068308588862,-2.062604730224609,67.31420536500865,19.484507966052053,-91.24345210325733
1776353611230,-7.2245029249995945,7.811980741882324,-1.7637781432554125,59.88749479364366,28.160538683787827,-87.05482493436867
1776353611247,-7.174973462677001,7.366360542407631,-1.6968905727662145,47.51320350829113,46.43929286509002,-82.37891840971297
1776353611263,-7.622539535522461,7.020398987036943,-2.226158338873088,39.386825433822956,68.22126814716468,-80.80819346666347
1776353611280,-7.85941527775228,6.86956311340332,-2.5585033106930553,33.31301824268659,91.0049828785755,-81.69324937931371
1776353611297,-8.135795931896567,6.310217750549316,-2.976291646520793,28.34873942372565,112.9547246821386,-86.06118267429355
1776353611313,-8.450484981647133,6.129905022540688,-3.041384588678181,22.731702840881177,127.07733607424471,-91.79022923688436
1776353611330,-8.580967803081869,6.102820031738281,-3.330184579412639,21.539406236343535,139.8025385734904,-96.4579531949144
1776353611346,-8.228122917938231,5.9304380967289205,-4.001010249328613,26.647038773151994,141.4492971823805,-98.8653421603446
1776353611363,-7.373093065533041,5.86699175273478,-3.9212531142637133,27.04554786782368,142.50741642822052,-93.43355226062192
1776353611380,-7.1136220451354975,5.918916001239419,-3.9890395332887767,26.593819646686548,151.97478261791022,-85.33057099915563
1776353611397,-6.642113955688476,5.720795521600544,-4.583848423711955,33.02294010863615,151.4719850723489,-74.45932089727235
1776353611413,-6.48664048538208,5.4192757500246165,-4.918139122772216,41.2292689624339,140.3349108381579,-67.80778215519045
1776353611430,-6.630890550884604,5.312434208679199,-4.353257168579101,44.50730214136563,133.0670977876441,-62.75611960353566
1776353611447,-6.877044409069419,5.246294972339272,-4.203469342693686,43.05554543327942,129.6826844123894,-63.83769371898551
1776353611463,-6.99091921005249,5.0059766884401435,-4.176085661205649,42.20271776822787,128.49820666690414,-66.97986077494735
1776353611479,-6.903680487060546,5.0201925530582665,-4.847659811401367,53.33027413381047,121.91084438226368,-69.54896129916678
1776353611497,-6.115239952850342,4.850802785602212,-5.914276651000976,77.05932119729691,92.53416661109297,-66.13001448746851
1776353611513,-5.250334603118896,4.618864499774575,-4.870853639984131,82.17974326332622,74.84038398125652,-58.728555125465064
1776353611530,-5.115511122131347,4.3347026902347805,-3.3508348609924314,64.72456646195499,68.42510148256537,-47.851687192989445
1776353611547,-5.280561399078369,4.128352142389119,-3.091064565387368,44.99383700651315,70.1701533438011,-43.28660390271178
1776353611563,-5.429001902008056,3.6016277771547434,-3.5045126800537107,30.501312814242898,66.32613653929626,-41.6577028234067
1776353611580,-5.189431513866782,3.3966239677429195,-4.2598827193111175,19.61057959775215,54.25426553982438,-36.965315052283756
1776353611597,-5.004480020141601,3.2840967819765208,-4.525339828380942,14.115869995395313,48.10006019196779,-32.01607801742247
1776353611613,-4.682010984039306,3.2243915242068466,-5.321711740112304,12.658883923725812,40.43259569764361,-24.287500405499607
1776353611630,-4.88372247390747,3.0681698658816514,-6.224026490783691,18.230466451417495,24.50237303414633,-16.495506194680463
1776353611647,-5.379920767974853,2.8803749654240907,-6.433519136047363,20.8334191007108,16.749995628060553,-17.7089183290372
1776353611663,-5.708524361309409,2.6563671803347764,-6.132149002075195,17.29415679923547,15.444147128571448,-20.007282107388367
1776353611680,-5.730222398376465,2.740613297381997,-5.8086325027465815,2.405564237704753,20.419174957738694,-18.89246716879535
1776353611697,-5.713910730522871,2.7524343758180736,-5.915773027038574,-6.983559360278095,20.82694749647221,-17.831217988768156
1776353611714,-5.5535003883361815,2.423680998749286,-6.600514701843261,-12.772118214880868,21.627531044562332,-15.748225442873123
1776353611732,-5.51594134979248,2.47545531738922,-7.286902974811196,-15.80760539996992,22.802448232756877,-13.367542517097668
1776353611746,-5.508010556793213,2.474856766974181,-7.482927651214599,-16.52092132858208,23.848114336192687,-12.325637286573597
1776353611764,-5.673958074840903,2.460042644201964,-7.68059892578125,-17.139104674887008,28.281426201907884,-13.473704147367176
1776353611780,-5.61170941619873,2.485032124029845,-7.9563810295104975,-18.63524224465267,45.03082589596335,-15.885855462196172
1776353611797,-5.444115299987793,2.3873189149051903,-8.350376840209961,-11.846095681362526,40.067545992168526,-15.134135087428323
1776353611813,-5.153070160675049,2.2204729867130517,-8.859892881011962,2.1332738372437285,24.965615246676812,-13.95019095047196
1776353611830,-5.412092852783203,2.2614736901432275,-8.409633331298828,13.668985232153364,13.724251707822523,-13.528617160746785
1776353611846,-5.583576962170005,2.19593241969645,-8.385242401885986,18.40159513352487,17.2326287476447,-17.311998960894833
1776353611863,-5.3381718765258785,2.047341986902058,-8.636334300994873,25.351012085689366,19.476723257945533,-20.11606653029916
1776353611880,-4.467579713329672,1.8525139729373157,-7.671620669555663,23.474711309362675,14.046110712081033,-14.390510194374233
1776353611897,-4.265419895172119,1.8718172238223254,-7.26520493774414,14.853822416343707,8.46669481118499,-6.434261033073683
1776353611913,-4.418349526214599,1.943493636023253,-7.553855875396728,8.214174179833156,12.66710405639192,-0.9714315521112913
1776353611930,-5.3579240402221675,1.791012917792052,-8.482057931518554,5.458883125726005,20.89699791659986,-4.736090736527276
1776353611947,-5.392040829357504,1.6201267742983996,-8.47831699142456,8.756928332039049,22.71774193421767,-10.474975332843838
1776353611963,-5.031714064025879,1.5026611092165112,-8.083273717498779,24.366078316806018,36.69935090109804,-27.55208494195558
1776353611980,-4.910955933269858,1.487098944555968,-9.098864134216308,62.28684462642076,7.926214258199065,-52.97072273061725
1776353611997,-4.531923882946372,1.2675804337099195,-8.971223842731117,84.61264298530642,4.700422208021001,-54.03259175031162
1776353612013,-4.524741277965903,1.3365635151736437,-8.603862940979003,98.38209944637703,7.795423819556136,-47.12794327306197
1776353612030,-4.743811314392089,1.090559294592589,-8.601768014526368,90.52195873066137,7.565358288874366,-29.62212744918427
1776353612047,-4.795585340771079,0.865205063330382,-8.37641378326416,72.3144912337266,15.419973381551479,-14.206729440603054
1776353612063,-4.7685015190124505,0.5422871509494259,-7.537695014190674,41.924862257697164,15.800399550395557,-1.811362539349385
1776353612080,-4.859031977026164,0.2684502630038187,-7.062895481982827,-1.7637638047972124,23.347651007780218,6.949051537043898
1776353612097,-5.089623524419963,0.1601125830828212,-7.279270872497558,-19.988167822996086,32.03518547162558,5.449471125049728
1776353612113,-5.130175315038859,0.10235252283047884,-8.105569135937094,-24.04484085976198,28.819679259450737,-0.7719230604765411
1776353612130,-4.725854217419028,0.40791250970792026,-8.194005544281005,-23.42325949434497,26.50877013114155,-0.8451042152041436
1776353612147,-4.436455384008586,0.6187519664706662,-8.094945450592041,-24.217079447609482,23.46214888393173,3.1623197425513703
1776353612163,-4.49137238458842,0.8132808148257434,-9.259425283050536,-7.539663117216778,16.349235986057348,3.9125718400910774
1776353612179,-4.712536762945354,0.9708492481173947,-9.948656085968016,13.09261032753173,17.54406317568248,0.9225126700586022
1776353612197,-4.642955277197062,0.9759367805147543,-9.643545011901855,23.640435604289276,17.208673566678172,2.5710531045484037
1776353612213,-4.110245407812297,0.8122333881320432,-8.244134141540528,17.786779070480762,12.026263265062768,10.293243635823664
1776353612230,-4.154239155578613,0.4837787748141214,-7.444470787048339,7.0934357596824436,4.52543916478762,13.064971967055273
1776353612247,-4.205564561407268,0.36122561386749147,-7.5155480643123385,-0.5594919042929797,-2.9756720168760777,11.020680126771177
1776353612263,-4.6022538489744065,0.31349114520289,-8.00022426289022,-6.0131337669655,-4.784464270663422,3.913201071268365
1776353612280,-4.589834220123291,0.591218537781015,-8.019827373504638,-11.0707957860325,-1.3854099580359989,2.5446439646791377
1776353612297,-4.425831406402588,0.796371802133508,-7.93558140258789,-16.932711726094855,1.4588961767595776,4.016029996109729
1776353612314,-4.211400720214844,1.0139447684023528,-8.124573696136475,-16.871658372651403,-1.1028634949276714,7.867955305899795
1776353612330,-4.1672576271057125,1.029207803985849,-8.189815691375731,-13.493790026168892,-4.595920740606629,9.607823053555483
1776353612347,-4.175038490240276,1.0434235224734991,-8.080430603027343,-10.717722817267031,-6.8264163442699655,10.754137970826953
1776353612363,-4.2826279273435475,1.5011649523746222,-8.144924410247802,-9.921789774228044,11.722178974345569,15.584483610353114
1776353612380,-3.9745243934631347,2.404227744934335,-9.18685104522705,-11.161645839730133,56.145582487041345,27.669205610748374
1776353612396,-3.934271293529868,2.608183798858896,-8.519018419647216,-25.605644953042027,87.49661523026343,42.33997724978845
1776353612413,-3.709964817754924,2.118270284149423,-5.018695592498779,-61.84992425540421,105.71492223741102,30.731770227028296
1776353612430,-2.787448990575969,1.8828903334353118,-5.649118817138672,-55.329846164277555,79.78880822360658,19.77827952489618
1776353612446,-2.3792376075193284,0.4329020260684192,-6.252906548309326,-31.28296990814291,-6.2682101697273875,17.831940281272885
1776353612463,-3.5275568710327145,1.772457854925841,-6.828263134765624,-8.595001622290972,-109.30558000484339,12.783798692135235
1776353612481,-3.8048350585386155,2.384924567114562,-6.76107585067749,-14.936399403409162,-135.7068566188273,14.116962825662513
1776353612497,-3.7467756682798266,2.5100216038577257,-7.954435740661621,-13.535344897079248,-108.03203659258116,24.442390312855277
1776353612514,-5.6256254210874435,3.1763577072694895,-9.477297634124755,-22.390131910678008,-59.56994563875143,24.4990313640949
1776353612530,-5.802796636199951,2.2912514271609483,-8.022221575164794,-42.964154087090066,-30.36486271009897,18.28548533272924
1776353612547,-5.453392539159953,1.8595469403140246,-7.836970221710205,-57.68656195625543,-21.362027931145594,14.55015220584494
1776353612564,-4.975001119939982,1.7934072655826805,-8.903138148498535,-58.5853943604616,-34.52559197132271,16.773860309020577
1776353612580,-4.719121109771728,1.9828483258120715,-9.37868645324707,-55.409093434122624,-47.94504563365977,21.898315601754778
1776353612597,-4.873247841644287,2.0373164135806263,-9.962722020721435,-45.176032302623234,-50.08166882491774,25.66065529661731
1776353612613,-5.365255698284506,2.1323359997071325,-10.403704039001465,-33.37766256808617,-35.07443523717367,26.86361211890205
1776353612630,-5.563525523266196,2.1110876061037183,-10.096348400878906,-26.937280831742516,-24.9686017468914,29.00169014045324
1776353612646,-5.487060707744956,2.0298346795231104,-9.887454306030273,-21.667130773822773,-24.721365974409863,31.01435222846465
1776353612663,-5.476437022399902,1.874211571612954,-9.372850586700439,-18.04557323058525,-29.594803277409635,31.913331481737973
1776353612680,-5.787683238220215,1.7741040146976708,-9.170390908813475,-18.040923579307766,-27.52586896837378,27.886704447130967
1776353612697,-6.029198330688476,1.7610855431705712,-8.974664923095702,-21.687804048893106,-19.192655690364703,20.237903444713847
1776353612714,-6.021566812896729,1.897405107934773,-8.475025548663735,-29.12724267777641,-7.984252936897602,11.852005502541878
1776353612730,-5.578789143371582,2.2481559434086082,-8.250867833709716,-30.74015769932907,-6.623734322631245,9.699371494095749
1776353612747,-5.445012541088461,2.4250275910526513,-8.379256897735596,-24.923834979523843,-11.749750740477618,9.505226782032722
1776353612763,-5.455038845062256,2.551171798761189,-8.364892272296547,-14.832392697822792,-21.143115245604807,7.80956999510088
1776353612780,-5.72034631652832,2.5689789658695457,-8.040027865490316,-12.943217014910626,-20.739517660001464,4.365573891508418
1776353612797,-5.747131447601318,2.6669915963321924,-7.945457484436035,-14.319855302505035,-15.310521307649317,0.4664925288017621
1776353612813,-5.5558945899963375,2.8691519990116356,-7.823502837371826,-17.507224550394017,-9.636557659393727,-2.469519994658637
1776353612830,-5.191377387237549,3.1736642304018137,-7.636455832672119,-18.925772878735625,-9.77536674012225,-1.5942147106571067
1776353612847,-5.1967643409729005,3.2706296898990868,-7.621043159484863,-19.794279243026935,-11.6081045699226,-0.7888635838046124
1776353612863,-5.27352843170166,3.3005572106510397,-7.548468921661376,-22.58582707568263,-11.63930231273028,-0.7965354870681234
1776353612880,-5.180453842163086,3.3225539384037255,-7.876025636291503,-23.409220040506007,-10.580459920611869,-0.13161870580149773
1776353612897,-5.131821620941162,3.4268516404852267,-8.003067961883545,-22.660211250838653,-8.775982852276092,2.137954651259303
1776353612913,-5.185840211376547,3.6059675599247214,-8.206873793682455,-14.025777238921906,-11.347535414407552,5.04384668081018
1776353612930,-5.349543749889731,3.6614831109195944,-8.653243350219727,-2.111561733089316,-13.287369756620057,6.223564638217599
1776353612947,-5.3670519340515135,3.5803798219427465,-7.915081050872803,1.156977909782919,-12.340457089525232,8.546940996196177
1776353612963,-5.453392246899009,3.519626662555337,-7.7204025283813476,-2.201982552086295,-8.403252599079327,9.15474416250998
1776353612980,-5.553949301147461,3.4247564217716455,-7.811831104278564,-3.7349527707248957,-4.186715996581525,8.302585855997094
1776353612997,-5.692513722229004,3.4419647462040186,-7.870338822826743,-2.177389602206018,-1.1462141719812136,6.564586591966227
1776353613013,-5.730820948791504,3.4267017106205224,-7.797166619110107,-0.2935711888415213,-0.5485338262650463,4.442375526743803
1776353613030,-5.749525649261474,3.3473937806278466,-7.607575775146484,0.34331540320587123,0.13863048195389763,2.019417571987378
1776353613047,-5.535693513488769,3.3393130577638743,-7.31638099822998,-1.4014233365450937,0.06848102408328167,1.1209448199296936
1776353613063,-5.453093556213378,3.3382658867985007,-7.276876670837402,-2.5976912691982763,-1.7254821953248776,1.0508774310508235
1776353613080,-5.369894464001059,3.3901901353031394,-7.523927770122885,0.05160586780000157,-4.071179931676174,0.8698500439279527
1776353613097,-5.403562924847006,3.454384375055134,-7.735814617046714,6.874805246331744,-3.7491540146698217,0.020443716681200198
1776353613113,-5.383810761150717,3.4053035332828756,-7.637053798565268,8.451816951625409,-1.03107511182137,-1.9120971574364949
1776353613130,-5.592855078125,3.364302537591755,-7.1954738143920896,6.0104862148884735,3.7330390370968227,-5.425494172855221
1776353613147,-5.557390381512046,3.435979242053628,-7.12469522781372,1.4369362648043404,4.823212360711728,-8.298487742495086
1776353613163,-5.480476653179526,3.5643683060795066,-7.220463294219971,0.981369904240483,2.4127340153425623,-8.322432678177858
1776353613180,-5.517287503704428,3.746028357043862,-7.41828420639038,1.5159128884035515,0.9831912168713492,-7.698984963570141
1776353613197,-5.698349004253744,3.7491707467228172,-7.433547241973876,1.7840844713516466,0.9363909741218334,-8.703769823502487
1776353613213,-5.747281085205078,3.72178706523478,-7.386261174663901,1.0326697475491562,2.476807379616217,-11.03129167942044
1776353613230,-5.755211293682455,3.783886378534138,-7.538292980083823,2.0145576789495023,5.088394882124296,-13.87256926564935
1776353613247,-5.610661368450522,3.8382051209598775,-7.530662046813965,4.731815464993672,8.205494716945362,-15.448112053384639
1776353613263,-5.371091564831137,3.817854114587605,-7.274930797466635,2.796881143180416,8.969774955823217,-12.855544706724341
1776353613280,-5.055655496105551,3.776853703418374,-6.955604735565185,-0.2663760969700279,7.862293079077854,-8.765693172291469
1776353613297,-5.086780702209472,3.7265754685550925,-7.053168453216553,0.5657731170084527,4.115637206096965,-4.28311515209297
1776353613313,-5.171624639019369,3.6833302010685203,-7.102998359790444,2.4179057492047313,3.1011295718811067,-2.4270825352414667
1776353613330,-5.162198054504394,3.659388184466958,-6.767061354827881,1.8938885134394756,2.507440564600313,0.33320202747919797
1776353613347,-5.252279891967773,3.5702041726261373,-6.616525925445556,0.8372657727187607,-0.43728562605458265,3.197819223875688
1776353613363,-5.324255579376221,3.6074636437013745,-6.716932757568359,3.0560035792518905,-3.574043972606562,4.7812929284544206
1776353613380,-5.412392127990723,3.587861117608845,-6.795043586730957,6.038633424458096,-7.238824020128981,6.105457433976562
1776353613397,-5.741145358929038,3.4962826118469237,-6.48020548389852,4.781610105364003,-10.676643498277636,5.1296125124443845
1776353613413,-5.962011631122231,3.4232600457340476,-6.464793395233154,4.714357501475119,-18.93171002067166,3.2631873358838837
1776353613430,-5.783643022918701,3.4663556756168603,-6.65902300491333,12.233949680928992,-43.20107627392488,6.4986304433591755
1776353613447,-5.0391959442138665,3.7969051423221822,-6.734440357208252,31.758293017767855,-89.76208652511912,20.325312790617087
1776353613463,-5.092466346630454,3.8500259071350094,-6.60156216506958,36.39013116189864,-103.84597757482042,28.312008373916616
1776353613480,-5.895123037719726,3.456479593768716,-6.5397618347167965,28.093659178982353,-87.87348457809723,26.180470258495713
1776353613497,-6.9533601715087885,3.2058363152101634,-6.7543421585083,9.738908044106367,-41.53929124886078,11.011677083671454
1776353613513,-6.899340996551513,3.142090988269448,-6.758083098602294,-1.5185802907178532,-12.449220168094868,1.8510745398443085
1776353613530,-6.44818362121582,3.4540853921085595,-6.566547550311684,-5.488728491078022,-1.7042096778765787,-0.44907319854070243
1776353613547,-5.898264842876792,3.6055186471134424,-6.150106099048257,-6.412357897065921,-11.318239025510076,4.127053013520994
1776353613563,-5.729923123168945,3.5926498131901026,-6.1367877677917475,-5.730497124015787,-26.39093912267507,10.207554643817621
1776353613580,-6.003759938049316,3.676596508899331,-6.375609383392334,-4.486428539343093,-35.176529489792436,14.5278396853738
1776353613597,-6.557568709564209,3.6219784912660717,-6.60769730682373,-6.692519450215151,-28.238006689354112,12.221542642301664
1776353613613,-6.783671713367104,3.5157360848575827,-6.601711802673339,-11.368109651734924,-14.244434646142462,6.967220267122955
1776353613630,-6.949319956207275,3.3979712906986475,-6.532729451861977,-18.50325566913134,1.3219984817816004,0.5408828938167213
1776353613647,-6.717232032775878,3.4923926186710594,-6.8016276412963865,-16.956822293865002,1.9649276034494858,-0.164088384579107
1776353613663,-6.734739632415771,3.554641569574177,-7.043442008972168,-9.1593630779362,-3.327566137679485,1.078980244390841
1776353613680,-6.536320169830322,3.4157781655460595,-6.952013433074951,-2.857925958887405,-11.04452943980557,4.006626533169915
1776353613697,-6.596474486541748,3.3596637718752023,-6.621763241577148,-4.430532832496647,-10.306831443403757,5.421772573531211
1776353613713,-6.633883887481689,3.301305106408894,-6.639270841217041,-6.050786038538841,-8.313401460547809,5.793389079006441
1776353613730,-6.674734953308105,3.30025793544352,-6.7377323844909665,-5.721867606886299,-5.827314628613895,4.886932049252423
1776353613747,-6.61383244857788,3.2610528832584618,-6.5485904533386226,-6.591450579745533,-4.793577450563512,4.655227273169849
1776353613763,-6.5859998542785645,3.2504286133915183,-6.4740709266662595,-8.156617883244751,-5.417870401081018,4.031178501915172
1776353613780,-6.645555036053061,3.38031376119405,-6.485143524822592,-8.436988610937313,-5.986062739076977,2.4447140282536197
1776353613797,-6.655730977630615,3.508703409741819,-6.693439653778076,-6.321403682983447,-5.250402700368768,1.6636537221323355
1776353613813,-6.49337300850749,3.500921669824421,-6.675781832012534,-5.430610411430384,-4.036065929153139,2.195156418341102
1776353613829,-6.46733723449707,3.5657150445133445,-6.486939760589599,-5.749107255069956,-2.3082519712786427,2.986599465774452
1776353613846,-6.539013646697998,3.4258038849979635,-6.369623879241943,-4.761113134551619,-4.563234016559886,2.096062112871853
1776353613862,-6.545747338867187,3.375675287738442,-6.276250014495849,-4.192124225743706,-6.517124461197454,0.7070966144860394
1776353613880,-6.682216833496093,3.3438024781376123,-6.0812728013187645,-6.833594019314003,-6.431978042343606,-2.308331372227744
1776353613896,-6.8308069740295405,3.4512422776371237,-5.913827153667807,-10.733527021232794,-5.372044100618464,-5.607944320398717
1776353613913,-6.8023752447932955,3.559579610498249,-5.972934007152914,-14.486291644652614,-3.8195805220886463,-8.850292749124892
1776353613929,-6.782174752807617,3.910629721179604,-6.228066706085205,-15.819624825361851,0.42515638402740363,-10.312357920215945
1776353613947,-6.585401303863525,4.136731848199665,-6.396857338604331,-14.243452806449273,1.6260840531592688,-9.626536918107671
1776353613962,-6.589291297039389,4.164115821948648,-6.564301817211509,-9.940250068007296,2.6035037601819573,-9.090110936167795
1776353613980,-6.446836882781982,4.0363253083378074,-6.410923857879638,-9.17244630529136,5.721180319101066,-7.784156568746554
1776353613996,-6.339845996093749,3.9333746369510885,-6.322637087139487,-10.501789801751663,9.72470125063274,-6.891620745181492
1776353614012,-6.348225701904297,3.901801102557778,-6.408081327930092,-10.255891892573802,12.47209959426712,-5.927970699525549
1776353614029,-6.364834891399741,3.9149689194276927,-6.439354418072104,-7.887000434626729,10.57690907601711,-3.015250401795363
1776353614046,-6.475866577911376,3.9251445687443014,-6.406434145244956,-4.512794350199812,5.537799985169979,-0.021872720321613803
1776353614063,-6.5589154479980465,3.891027195087075,-6.37800358505249,-2.4542686091288215,2.530077305613616,0.9519270931626737
1776353614080,-6.801478588214517,3.8003473917305466,-6.3061775352478024,-2.4343989485030195,4.563410320817837,-0.5395316902998224
1776353614096,-6.9168485961914055,3.729119307819009,-6.259640240478515,-2.8043926437201376,6.955029233228128,-2.2019838327467647
1776353614113,-6.864326381793618,3.7080201134279367,-6.190657305145264,-4.108012153662291,9.654463000302915,-3.7026668934050684
1776353614129,-6.772298670959472,3.7937624603822826,-6.291363412475586,-3.72133465418036,13.701133225029322,-4.947733966357053
1776353614147,-6.58854369354248,3.8621471375614402,-5.799654246520996,-2.619543178787263,10.908332052660931,-5.262721373423709
1776353614190,-6.635230625915527,3.8052842636108397,-6.458658253479004,-13.490141851378457,-4.556961768467699,3.5749519608793503
1776353614196,-6.996455216869712,3.636343993487954,-7.319522803387046,-10.955016395637967,0.8034506800767911,2.2453008924629856
1776353614212,-7.456441795349121,3.4765307404115795,-8.346486262512206,2.64886005825225,24.67959595254065,-6.513785352466964
1776353614229,-7.64184278640747,2.9400802231937644,-8.77220524520874,15.64963336975128,50.13777541385481,-23.413176427582737
1776353614252,-6.7948939491271965,3.6324534157902,-6.150853702545166,-3.4881667235115223,51.78682555121142,-22.939487440716718
1776353614263,-6.450278547668456,3.6004306763246654,-5.6863785804748535,-13.053001206761179,43.81425992175736,-18.70856091029817
1776353614280,-6.694487117004394,3.2555165841802953,-6.760775990948081,-11.577200525249232,19.614862126361746,-15.508429453945022
1776353614296,-7.042843458557129,3.097498982349038,-8.694393106731772,3.7552764254870916,12.257998776996606,-17.337424340080208
1776353614324,-7.038354330444336,3.109769265857339,-8.929773641967772,15.066828695799725,19.830839538106723,-20.55507693920173
1776353614329,-6.7651160659790035,3.0805899331241844,-8.28109462966919,17.630273823386382,37.11456493093229,-24.84135873774865
1776353614346,-6.360494816368818,3.0243259018495676,-7.402721311077475,14.164087715841017,46.11500572858157,-26.862293892392238
1776353614363,-6.120327631378173,3.019538083051145,-7.181856207928061,10.715220406709868,48.71563440600978,-25.98001786673418
1776353614380,-5.838560023498535,2.9682120927006004,-7.253383567047119,12.372372002195762,40.529987365018826,-22.27318541170905
1776353614396,-5.597493843841552,2.965967528644204,-7.575254052734374,19.319543529670614,27.96827568884114,-18.647743198381086
1776353614413,-5.588215727886557,2.9807819436773655,-7.7588588080257175,28.084346216049042,15.121354095943937,-14.680424403884594
1776353614430,-5.604077898406982,2.9459160897403955,-8.015188607788085,36.33395627106987,8.233764869920044,-9.573131668987342
1776353614447,-5.750573112487793,2.8562834573492406,-8.288875200542806,38.338428962266434,14.677702573500344,-7.62478264220077
1776353614463,-5.789328667339682,2.765751830291748,-8.494477852630615,38.2714726178328,24.303105680205793,-7.003048024414257
1776353614480,-5.932382216534018,2.5481790466859935,-8.909123068127036,41.19445890332893,32.12345883645883,-9.1135248246426
1776353614496,-5.921757946667075,2.447023734283447,-8.921991902050376,41.95731931663307,38.221724935013015,-12.380049988596504
1776353614513,-5.753266004833579,2.4896704513549803,-8.990226649364828,44.62332997989122,42.23248714772537,-12.066039725467983
1776353614530,-5.059845349010825,2.4603414810180664,-9.137470635986327,50.537006801031225,40.45030979325604,-7.690554802587053
1776353614547,-4.3628339752197265,2.360683129175007,-8.953266745758055,52.17248876760161,40.975424981930374,-1.2636748561286268
1776353614563,-4.114285915374755,2.22152044993937,-8.775048359680175,52.353277044742676,45.44979994493569,7.547756891383243
1776353614580,-4.013130895233154,2.142661286627501,-8.728361427307128,53.07910758746159,47.134442198057236,11.349728758904773
1776353614596,-3.790919053649902,1.8055277653567492,-8.805873706054687,53.86981126691729,46.67675463686927,12.306712539930784
1776353614613,-3.3954268669128416,1.3539214772097765,-8.398260873413085,52.00150181191951,32.575815434999605,12.593411437889362
1776353614630,-3.227383837890625,1.178995264545083,-8.230217844390868,46.68043952392649,19.242637307163562,13.28874262464323
1776353614647,-2.947112021526694,1.1080667481020092,-7.941866181945801,36.677494295754,12.679803085606268,16.50933903529703
1776353614663,-2.770539649090171,1.4125794178836046,-8.371475742340087,25.944917524589485,15.35170393324991,21.263734678799942
1776353614680,-3.0992937568113206,1.7483662007205187,-9.668684129333496,39.48843132791607,23.235693961999957,20.277943721175756
1776353614696,-3.203741096496582,1.8749597596317529,-11.017367852020262,67.78594604041392,44.75744415933901,18.645909292588936
1776353614713,-2.949057602636516,1.5918451210573314,-9.629777767834067,110.54133881061712,73.02216713363163,5.100208121180656
1776353614730,-2.797624639892578,1.2675805067751555,-8.838195428466797,127.17287676035485,59.32681822505565,-4.326354518407381
1776353614747,-2.6518773215696214,0.9686045744631439,-6.994809787750244,133.42468551145092,55.17438764367348,-7.3342127345300865
1776353614763,-2.02085554651469,1.0404306608004494,-6.0622682411193844,136.78799360217027,90.27025942955723,1.57787401667638
1776353614780,-2.300378590337932,0.9293995040117763,-5.9959787826538085,130.72452048724813,109.3543475555173,7.894454732332152
1776353614797,-3.295618292944133,0.019752474223542957,-7.549067472076415,112.35245226150522,71.21429802259928,12.42807817129274
1776353614814,-3.1298201202392577,-1.0482111586088314,-7.8269445022583,53.39232640242003,-6.752185421483444,27.888285635923825
1776353614830,-3.5178301345273852,-0.7001540557309984,-6.957998937225342,28.32578998811441,52.549330794678724,27.44902421756926
1776353614847,-3.8048350585386155,-0.507121583413519,-7.43743781967163,3.396485094282441,67.56444300563041,21.301304134329598
1776353614863,-3.11261150354594,-0.35598760361615567,-7.534103711700439,-12.193141008185458,81.01243661341435,11.292263816096517
1776353614880,-2.944119561712444,-0.28296441644877196,-7.7317755707889795,-11.95248356164829,78.05961606162361,5.002976109477293
1776353614897,-2.797025797216594,0.03606291823443025,-7.9007158409118645,-5.915303259936114,68.86945992958806,-1.1515539925299885
1776353614913,-2.5833432990476486,0.17043752294331788,-7.924657857513427,3.051854239331108,54.43902215687322,-8.03047453455837
1776353614930,-2.549974113409221,0.09606759734209626,-8.02581287765503,6.277392932179646,45.62908216536477,-14.027358427714763
1776353614947,-2.8854616210386155,0.35942977995928377,-8.36997936630249,7.500461246475489,44.0317024090793,-22.431898517452638
1776353614966,-2.732531989996135,0.6468836533144116,-9.004742081451415,6.973800727501439,41.99563667787684,-32.493733636648976
1776353614980,-2.456300973455608,0.6618473771577701,-9.030779024505614,6.396156261467828,50.46400915427672,-32.495089429199226
1776353614997,-2.2903528708860277,0.593612629843317,-9.03407105178833,4.339126118381659,56.11780752278149,-24.607375239804227
1776353615014,-2.463782707513124,0.5835869469240308,-9.158120625305175,3.5905395197823773,62.03166875902908,-18.53425106758486
1776353615030,-2.7064949008114634,0.5222354928499088,-9.17413184890747,1.096349095285066,55.36691018580863,-13.59138745299285
1776353615047,-3.0187885798580942,0.23478165602739898,-9.567828384399414,0.8548439048780231,40.502564155501226,-8.577037371000191
1776353615063,-3.1691745177671313,0.3907040756776929,-10.407893891906738,3.737061164744314,34.45483462661596,-8.45394455555187
1776353615080,-3.1718679946348067,0.5562032654359936,-10.853813951110839,11.297628929689562,36.340335667754665,-11.960982878296724
1776353615097,-2.979882729815319,0.5883753502443433,-10.987739606475829,20.30582455336775,36.369869405725794,-20.46704433853673
1776353615113,-2.701706497491151,0.6012442572329193,-10.18224038543701,21.789462876952285,31.61266655447401,-27.158888026910873
1776353615130,-2.4839837840206918,0.7454948341920972,-9.737068514251709,17.96314821522883,34.315512427926045,-28.28660177775146
1776353615147,-1.7464200350888073,0.9512465393617748,-9.335441185760498,-0.4764868031047833,50.1112196383618,-16.750010995986184
1776353615163,-1.0000276675350963,0.601393894836679,-9.058162705993652,-14.740402002533768,55.35325322256319,-6.690410202422086
1776353615181,-0.9258074526028707,0.18225889364033937,-9.164106129455567,-23.19730659131719,49.77867480314681,-1.360290443259396
1776353615196,-1.380107181084901,-0.06254822611063718,-10.254066435241699,-15.473602319367126,38.30570552595291,-1.7521659301431192
1776353615213,-1.414673504086025,-0.2965813653256744,-10.896610305786131,-2.8413352159500325,21.191626664184824,-0.8606292351875826
1776353615230,-1.2493239153988658,-0.49904097014740106,-10.8086228102535,7.295590576094604,3.0861287689164665,2.7211076648585295
1776353615247,-1.2068268176647834,-0.9299974151059984,-10.483909794616698,12.338568542219724,-15.06852429026118,4.518859985069606
1776353615263,-1.3183068141994998,-1.2521671029355377,-10.248529843902586,11.614569343972018,-22.83114356500739,1.6628572580420886
1776353615280,-1.3498804216580464,-1.42050948023051,-10.241347238922119,8.982767683171874,-23.667419974152708,-2.1842569305296426
1776353615297,-1.6898570574002338,-1.3851950057432054,-9.849296717071532,-5.934507190561251,-25.2501028708916,-5.335021487109232
1776353615314,-2.076969465261511,-1.1185406497128307,-9.741407420238852,-17.56749413963021,-20.24278190732853,-8.166980133989307
1776353615330,-2.1824641220426186,-0.9521437804624437,-9.998635045623779,-25.234120228233767,-18.09358263026127,-14.708045688888125
1776353615347,-2.19802632323578,-0.749534391906485,-10.416422650799154,-24.952016340039318,-14.21635573846454,-21.40378600018376
1776353615363,-1.8140563050534575,-0.5425856589719653,-10.493935514068603,-23.378895708138444,-14.398438336453324,-26.509681961395746
1776353615380,-1.516127762902528,-0.5187932434415444,-10.447547856903075,-21.29990906819162,-16.81570546297066,-29.553207425364256
1776353615397,-1.064521401690319,-0.46731787121556695,-10.67379991378784,-14.440290320592577,-20.701989185606827,-29.851942824187688
1776353615414,-1.0037686806943267,-0.24884700625892728,-10.96289976425171,-5.407068456908642,-19.82779498128419,-29.304906143372197
1776353615430,-1.1107594212520866,-0.17402816784642636,-11.145606693920492,7.369892788980588,-8.527862570297039,-27.753901664003823
1776353615446,-1.2597986207272858,-0.08035502789281308,-10.62980645828247,19.76907584498959,4.645357222932358,-23.757908027824328
1776353615463,-1.1544537476804106,0.05671298061851412,-9.587580548095703,17.02447873268856,2.4590781295215685,-19.11346818467487
1776353615480,-0.9706986971981822,-0.02648549053929746,-9.067889150238036,8.027222510739799,-3.28259190331589,-10.962214561249516
1776353615496,-1.0721530656125395,-0.19153584055155515,-8.897302281951903,-2.76464051586384,-18.949046748332442,-4.223044492116354
1776353615514,-1.3287815560605376,-0.4783910538937896,-9.419687156677245,-3.4394994912410657,-26.61529717653165,-2.4810713386490093
1776353615530,-1.2059290833737701,-0.7389101585721597,-9.664643914031982,-2.8722665813800816,-30.158290468841102,-0.3189080957328009
1776353615547,-0.6560109626218676,-0.7181105316495523,-9.62693523788452,-10.692285485250611,-29.102162223144123,3.803627761508435
1776353615563,-0.137217317321524,-0.0014960472440347075,-9.995492655944824,-28.86109411148311,-17.709463036623507,15.147317352526448
1776353615580,-0.10624233334325253,0.47958892190884794,-10.18313821105957,-58.05342507695516,33.50095772788866,43.34971826573728
1776353615597,-0.8872009143002331,1.1207859809542073,-11.055973769268393,-78.9466663895115,97.78997668685028,75.34094122477008
1776353615614,-0.6744163148190826,1.3949220230930368,-11.909956158447265,-40.25319053380947,144.99595487117963,53.348876154015
1776353615630,1.3699327373446897,0.4722566245256923,-12.563423574066162,13.668470406644674,129.62521520071292,41.308823590791626
1776353615647,4.01642348877145,-0.9608227192396704,-10.97412258453369,24.50392007199334,67.07836576315728,64.87394952929235
1776353615663,0.011073639335948973,1.1074682707522063,-9.664643914031982,16.538526141167786,48.78346842975176,60.34735777008228
1776353615681,-1.0073598553203977,0.48273122025625775,-9.599401334270834,9.959200427859496,26.468407128241356,41.94231339102655
1776353615696,-1.2922699076779185,-1.4318818924504797,-9.793182615661621,13.759358026382742,-39.918763981478136,8.175250639300545
1776353615714,0.5596451129855587,-2.7750289963986723,-9.66015478591919,4.255637301062008,-91.22919066827035,-1.9487562768158342
1776353615730,0.015712386786192654,-2.1458028908551667,-9.338433937835692,-11.088487683530126,-102.97223245543572,-20.758736104778585
1776353615747,-2.332700184885878,1.1939587600595782,-12.275071911621094,-1.2528594650213232,24.636118383378935,-41.73075169657999
1776353615763,-0.7290339305935427,1.820042466790974,-11.236886216735838,12.215966646617995,93.55283468428702,-27.075156737875684
1776353615781,1.5255558635211548,0.5535098251009359,-9.507075517272948,9.409529001571672,65.59354410929903,5.47436929900854
1776353615797,1.373524003302306,0.34910485836509614,-9.19283596485555,23.813749946931058,9.959160300498123,21.592261655235678
1776353615814,0.22655180701632052,0.41030663830284025,-8.591742295074463,39.834291616918,-34.46485792922296,33.49682887853539
1776353615829,0.00912835048707202,-0.35000206293314695,-7.677755811309814,29.9487880764293,-53.3632946833529,23.863026346698117
1776353615848,-1.0980403253972064,-0.75028265299052,-7.015759052276611,12.49091505788321,-132.4650302726858,1.63726101740576
1776353615863,-2.233191196651943,-1.0842737480496987,-9.432406352996825,12.596292070171815,-158.96005806321728,-21.09310118540739
1776353615881,-2.811690282385051,-0.5972033843442798,-9.961225644683838,4.7325347692906385,-112.95264147444175,-43.05160099903374
1776353615896,-2.4172454127438363,-0.1563709671353921,-10.58566278065145,7.683508608684539,-58.71894504930286,-38.975449970302265
1776353615914,-0.7214024493344128,0.33788207461573183,-9.901071327972412,4.470580792921371,-56.043184291004515,-22.91042669334561
1776353615929,-0.5822394778378307,0.038457156427204604,-9.315988297271728,-3.039918697199922,-66.2503487602658,-3.6422568584040675
1776353615948,-1.6220713324949145,-0.804451429018937,-8.964190875354408,-16.39757664990811,-20.9815829792813,-1.3296167040271034
1776353615963,-1.611895829308778,-1.1215335113858804,-8.95610986022949,-19.208674191515676,7.410812452298134,-1.6156579828346558
1776353615981,-0.9403224097654223,-0.5383958060666918,-8.918550821685791,-22.251858146025686,22.558830752988154,7.325500828243736
1776353615997,-0.8864528724119066,-0.31064733661171046,-8.613888660430908,-22.264502533726674,11.324655134461656,24.86493655076353
1776353616015,-1.2180498023435473,-0.15248038943763823,-8.739733885192871,-21.499903837278765,-2.5377689523926965,36.54690107882336
1776353616029,-1.7943042144224046,-0.18136046522958202,-8.864830921936035,-24.94442629232414,0.7521980077620732,35.7572355881215
1776353616048,-2.3044186595089733,-0.24136514433724804,-9.31464155883789,-26.442788796211932,24.55555288702405,21.809383123666628
1776353616063,-1.8179466635555028,0.13901367181953972,-10.08063586796224,-16.531656678410048,34.73516266562621,13.1260193440832
1776353616081,-1.5559313655026257,0.08260027693579904,-9.759813430023193,-3.280601543503066,25.15221430725427,14.380661061591073
1776353616096,-1.582566858971864,-0.06658840944611001,-9.502287113952637,2.928128991054323,10.055518901761369,11.651588115499841
1776353616115,-1.6356882083065807,-0.4367918457143474,-9.644442837524414,6.0356870516048815,-4.945617461487996,2.7934427832635493
1776353616129,-1.505503639166057,-0.4906614013341721,-9.574562076568602,-2.4679488377061225,6.796911634602803,-4.186511517793248
1776353616146,-1.456721634209901,-0.255730345165031,-9.719860189819336,-7.264138408740341,15.34096004568548,-5.860809449416814
1776353616163,-0.7975678435176611,0.08693977657798677,-9.914388490185141,-5.970605167211592,21.145282123118996,-2.694488283228874
1776353616179,-0.7588119233395904,0.047884352863533416,-9.834632231903075,-0.3887529164942637,32.35906621187842,-0.30315341063852025
1776353616196,-1.307383305657655,-0.18435320360504556,-9.774477330669761,5.837059174125387,23.84721616631683,-8.149272014792402
1776353616213,-0.9597752251889556,-0.0960670219533611,-9.152733671569823,2.160566205950042,26.68688097412797,-10.71381680283543
1776353616231,-0.7511803324826062,0.39594143290848005,-8.595183959960938,-11.048585718398911,32.74399518293283,-7.832988152443915
1776353616275,-0.6551129908688366,0.272640061110165,-10.426748229980468,-23.99243964844964,14.453132783779495,0.03565977732640188
1776353616280,-1.008557010949403,0.11237818748345597,-10.596886185455322,-18.004967755969524,8.35135682176557,-3.9831998380904174
1776353616298,-1.082029074395448,0.013617387268319726,-10.090961447143554,-9.560089422767202,-12.11964817271612,-14.17385403258049
1776353623895,-5.470300711601972,6.37231618706584,-4.227711803546548,-9.166823352057147,14.399966591280116,-6.919288560848744
1776353623911,-5.173419705742598,6.301987097820639,-4.199281243354082,-13.180979315013355,2.9884318774627197,-0.36485259048450813
1776353623928,-5.011212543267011,5.908739475139975,-4.891504213824868,-1.933857926688744,-28.123700058499363,5.140670161823812
1776353623944,-5.22938416954875,6.010342823570967,-5.4129906784057615,9.888483210514122,-44.68281409737286,6.868316139733408
1776353623961,-5.296272178429365,6.057777943962812,-5.507711866107583,12.410995868178539,-37.48164320259087,9.398132830941506
1776353623978,-5.288939351323247,6.534074436730146,-5.2030497048527,10.223825861967885,-16.130463319394547,17.20687039673729
1776353623994,-5.878662316784262,6.362739964947104,-6.171655083033442,22.054482754485242,-17.384709739704206,21.853584692880364
1776353624011,-5.776010336083173,6.1183817580074065,-6.168661746436357,38.250749823890985,-43.585687641182886,23.942586097697717
1776353624028,-5.6914645054370165,5.56756515404582,-4.683956857410073,43.61480473761465,-97.44520922811554,26.998954024853145
1776353624044,-5.338320345085859,4.650287227520346,-3.767726101849973,31.14413265288406,-154.49142045911478,50.50602164786146
1776353624061,-5.685629223412275,5.843496895378828,-3.892972776196897,11.256012587076675,-188.17844620037292,89.06709428650281
1776353624077,-6.503099452751875,7.268795655712485,-3.979613241034746,14.235041428486403,-125.31771541950936,45.480464079214464
1776353624094,-8.177244963616133,9.30850524803996,-3.394679847937822,25.44185018655595,-26.62397322432486,-19.346251276872657
1776353624118,-3.86274393441081,4.871899934166669,-2.2556381158575416,-24.335438088189342,-7.512986105866001,13.503212272128923
1776353624127,-5.070768894085288,5.821649805229902,-2.3801366021856665,-31.560511229971794,-11.154917249624024,12.509021889372915
1776353624144,-5.614700414708256,6.728304046410321,-4.218134704644978,-23.972227411148282,-27.36835626837682,17.912907051241508
1776353624161,-5.042037305119633,7.048079605644941,-4.723611114667356,-5.431685739337838,-50.199615946600105,32.093371853164925
1776353624178,-5.011661456078291,7.087883208245039,-4.390667738562822,-0.3375986149118499,-54.86587141395859,42.69186518073292
1776353624194,-6.23090923603475,6.59497811050415,-3.8504759889900684,-3.3030553635126596,-36.212252545344,44.93878909689743
1776353624211,-7.102696746495366,6.3081216550529,-3.9332252916082737,-0.36143135940141935,-24.24257654378114,35.09655821989534
1776353624227,-7.002590358623862,6.219087280815839,-3.2923277269661426,-5.736392431043154,-29.04865793628083,30.932926128274342
1776353624244,-5.879409920281171,7.105839720696211,-3.109320645307004,-9.768528013215773,-30.338590387456513,38.75238282219882
1776353624261,-5.582080001610517,7.01022129189372,-3.869479380145669,-1.40634342062503,-39.0243438794758,44.16327234306126
1776353624278,-5.861752683037519,6.732942812126875,-3.8628962023630735,7.123954752441353,-53.10175307965477,39.48769708258029
1776353624294,-6.336553968811034,6.449529775127768,-2.9825778871834276,8.030649558155853,-66.0134231583364,32.41474932908695
1776353624311,-6.285078048595786,6.654533292278647,-2.6660946474924683,2.9135277541561284,-71.96730588802568,20.493579623462228
1776353624327,-5.796062359508872,7.250839143261313,-2.879627508057654,1.8803606834580306,-85.91197036168546,35.71007996209173
1776353624344,-4.3899172124564645,7.9282485754817715,-4.487333338330686,10.838337981593932,-66.9362773378535,47.30369087059557
1776353624361,-4.685750170567632,8.186671548131107,-5.102643164990842,40.2322286832467,-55.263460140639616,65.16293483307558
1776353624377,-5.821649805229902,7.418132815220952,-4.014478802710771,46.99217618783504,-61.48939272006509,58.463400351696
1776353624393,-5.907092876976728,7.805246465191245,-1.6609788630381226,25.752096161678146,-31.056976023980113,62.2333779055979
1776353624411,-7.838166738018393,6.34613019092977,-1.6445184343636035,18.344989940778394,-45.548359574658974,32.255595676141894
1776353624427,-6.827663999828696,6.871806508415937,-1.1767512850105761,10.829656811158847,-65.50415742363107,23.756164622038682
1776353624444,-5.856964864239096,7.625532287597656,-2.0005065859690307,8.123526470489685,-77.03618734657807,31.990813147682598
1776353624461,-5.069871068462729,8.231264723095297,-2.6626526903450487,3.7228044255123818,-57.384052877915565,44.06186452445408
1776353624477,-5.4412710164725775,8.008901490342616,-3.215413706372678,5.945127280946975,-28.488746348879864,46.15282448601593
1776353624494,-6.448631949505209,7.526171749657392,-4.5227977426826955,5.005578411551069,20.264933918354174,40.3371403888981
1776353624511,-6.2484162511527535,7.57196085640788,-2.447473523877561,3.1730785711546097,11.88942554768344,29.613576052343415
1776353624527,-6.216544610595703,7.426065361785888,-2.0905887156933547,-2.641965622615357,13.266775882498823,23.055153279216302
1776353624544,-6.040870063781738,7.6729662389457225,-1.7233771592840552,-10.859754039736508,14.936027158099396,20.29857601511107
1776353624561,-5.730670142143964,7.7958187116324895,-1.6867162386238574,-17.276130222468513,-7.610542551554939,22.948578422502006
1776353624577,-5.80339518661499,7.770082212829589,-1.9131185176342724,-20.185449299435444,-14.794008742234613,24.030854339889085
1776353624595,-6.017226737865805,7.500434081810712,-1.9795570291817186,-12.47977075047869,-46.713893790481215,18.642734962172174
1776353624611,-6.1825762900203465,7.509561975640058,-1.9425965410530566,-5.744151099053465,-70.05465484493618,12.061069055299507
1776353624627,-6.343735404747724,7.399129424065351,-1.9595055902779102,0.5799220673175457,-88.86276917748188,3.6525687365034942
1776353624645,-6.391321331787109,7.5534069625854485,-1.8216896494761108,3.544546733458804,-109.26415490752727,-8.045840752643606
1776353624661,-6.075585403332114,7.746438886913657,-2.0491383687995373,5.331716956211415,-122.79591395529226,-15.621127575250233
1776353624678,-5.413588644298911,8.081776756939291,-2.360683713696897,7.574595265953162,-128.66080615028545,-12.127829885568149
1776353624694,-4.212746289604902,8.857047428452969,-3.320309812738746,13.277126180412331,-126.9017319106837,0.9892538635333817
1776353624711,-4.0904929518550635,9.029880614361167,-3.851075123926997,32.87015219199755,-104.77073737711596,22.40500977023759
1776353624727,-4.396053523254395,8.757241484832763,-3.4886525553599,47.78111426339029,-80.66296998453066,33.87251318854818
1776353624744,-5.237614822277426,8.097339067730307,-2.954894930487871,66.20421766261154,-47.28121613313164,38.44772564936498
1776353624761,-5.906045998272299,8.148215268486737,-1.3355170748606324,64.99299289633649,-31.160333861595333,36.34810159284097
1776353624778,-6.099527419933676,7.897123953899741,-0.8180698026679456,53.384427288644915,-22.41069248762704,31.536369926350385
1776353624795,-6.45491555981934,7.590066421940922,-0.5196928591623902,37.576159360325505,-4.757472643724001,20.85989462148106
1776353624811,-6.443843546184897,7.5251242864310735,-0.1903399087652564,23.748499442242636,5.826017746445238,11.605064281968298
1776353624828,-6.439653693279624,7.4570391767203805,-0.13527400123402475,9.025353058873257,7.609776716594252,1.5298240627521635
1776353624844,-6.3685752469718455,7.558942384880781,-0.2983784048102796,-7.834005850630247,3.4826139931597133,-12.989890258830261
1776353624861,-5.985204875183105,7.626728803905844,-0.7981681474983692,-15.990271979132741,-1.5291199129374176,-19.882849721089077
1776353624878,-5.711966026195883,7.766938654106855,-1.2726692812815308,-10.394976742190064,-1.783718522622522,-17.65669982528516
1776353624894,-5.719297684258223,8.027157862523199,-1.4529825938120484,-9.48476182773207,-0.5889143315249848,-19.19637302082048
1776353624911,-5.33083846489787,7.997829476708174,-1.7821850298225879,-9.752185931852873,-3.8625897964053935,-20.50375831287284
1776353624928,-5.258564086803793,8.088659502190351,-1.849222384046018,-9.342736581678118,-3.779614523933963,-19.470946625454996
1776353624944,-5.007322550091147,8.221388056725264,-2.0079886122874915,-8.089245751045391,-1.9727133787730655,-14.227966206279916
1776353624961,-4.850801032036543,8.254607604759931,-2.2182292994394897,-5.253553125123435,-0.771449963154812,-8.984710018217097
1776353624978,-4.844367199596762,8.253111228722334,-2.3490125651255247,0.17300356903454547,0.3109243516449965,-3.8714707498737027
1776353624995,-5.136759077343345,8.183978655785321,-2.346618363465369,8.879992972957046,-0.7831013587443546,0.2046089353974572
1776353625010,-5.355230563354492,7.990946731457114,-2.050036632813513,12.99985294350837,-3.360273992623972,1.7137875240836407
1776353625028,-5.504418669781089,7.924058138054609,-1.8679273767769335,15.03948403345758,-4.687014546680266,1.6451567160862948
1776353625044,-5.730670142143964,7.762149666264653,-1.4823108334966002,12.800482282956638,-5.6577871989800625,-0.7050137269543029
1776353625061,-5.743987888878584,7.829786447685956,-1.2322669821359216,7.614401608435997,-2.97207229374007,-1.5545162638188175
1776353625078,-5.707775588768721,7.854176792576909,-1.1731601286508142,1.8775280759431794,0.855302488047766,-3.053253574337314
1776353625095,-5.761496073040366,7.852679832017421,-1.2668332686044275,-3.219291631078916,3.2754744193139134,-6.292785617247916
1776353625111,-5.720345732006431,7.807640082329511,-1.4903919947519897,-4.295585796856944,2.074455236319341,-8.811874642590864
1776353625128,-5.675155760192871,7.81482210278809,-1.6069592496894298,-3.2201460450554023,0.7534850181729447,-11.047778048529556
1776353625144,-5.543474084362387,7.849389558300375,-1.7357972265265882,-0.9220448021004564,-2.067101683904176,-12.1707414028024
1776353625161,-5.414935382732748,7.978226950615644,-1.695245582038164,-0.23976327872527814,-2.575799232247916,-11.315089454529053
1776353625178,-5.341762594494223,8.003365483525394,-1.6702559560798107,-0.46391920167110695,-2.5773650531151415,-9.58416754713879
1776353625195,-5.325302458080649,8.045863732036947,-1.6579858187019825,-0.9117216115002167,-1.2828036546728938,-7.959762439854875
1776353625211,-5.370942511749267,7.991694919475912,-1.6419748873606324,-1.2219411196393797,-1.5286922790623512,-7.018329718908514
1776353625228,-5.406704730004072,7.940069361656904,-1.663971322852373,-1.2239274240273839,-2.572099190708473,-6.041632731277377
1776353625244,-5.489005996593833,7.85283063866496,-1.7661736600898206,1.5440339511552577,-4.691253532833905,-5.142851980376808
1776353625261,-5.560532186669111,7.896824678692221,-1.7818860468760132,3.5683256101673804,-5.756927394782798,-4.804305116428663
1776353625278,-5.5636751608699555,7.9649103729248045,-1.6868660223580896,3.33419312872169,-5.363404765092043,-3.933310855732175
1776353625294,-5.440522828453779,8.014588303807377,-1.6186308366522193,1.3675697173673371,-1.603392884076017,-0.5206409345203009
1776353625311,-5.453990797314048,7.890838590019941,-1.6274596014045177,0.759939867103724,-0.5218035074222311,0.738857847900245
1776353625328,-5.491400782775878,7.77621735458374,-1.6720520457163452,1.6860400940238753,-2.2327593844863727,1.5758059634617472
1776353625344,-5.6501662803649895,7.639897497558593,-1.6964428289987146,4.523515612762616,-5.606210733010004,0.48863621553435505
1776353625361,-5.7516199911922214,7.594408250537514,-1.6053136744394898,6.016282911059698,-7.564493416170713,-0.6739004010158965
1776353625378,-5.768378818291425,7.658750082066654,-1.5358816801644861,5.644711228700896,-7.2079430273440614,-1.4985881135738142
1776353625394,-5.672161839073896,7.796267039921879,-1.3609554674997926,2.0170780187532373,-4.593494315903982,-0.49553742799956535
1776353625411,-5.645975842937827,7.765891190880536,-1.4336793429270387,0.1474895041116686,-3.7744338254485084,0.17762659324643917
1776353625428,-5.68847233788371,7.720400774815678,-1.5661087683849035,-0.3743223542840399,-3.919002036307821,0.33880955942692553
1776353625444,-5.681439370507001,7.691072389000654,-1.6379346720591186,0.3905605687467899,-3.874798332659968,0.22274057968375519
1776353625461,-5.72109275098145,7.6633888477832075,-1.7039245630562305,0.9769253720815088,-4.252819848029378,0.4846729982684551
1776353625478,-5.7894788894653315,7.630918072289228,-1.7010813024543225,2.5762585624695995,-5.221084540243311,0.7281914402942122
1776353625495,-5.830926752141118,7.603533806279301,-1.6719018235906957,3.0936385619088953,-6.622390482912045,0.3410149634768992
1776353625511,-5.926994678276777,7.551759195378422,-1.5503966738596557,2.7627984992220522,-6.711741310086859,-0.8886452837807998
1776353625528,-5.961860239952802,7.501929288804531,-1.461361861231178,0.25265990317787873,-8.088806057617571,-2.958263572229008
1776353625544,-5.947345976909995,7.534252180260419,-1.5017640142463147,0.13326552844341127,-11.42662217480713,-4.5943976084217155
1776353625561,-5.856814642113447,7.73192287030518,-1.639879814777523,2.1294356978170046,-9.753022630026198,-6.383627986982733
1776353625578,-5.619340933990478,7.80195502243042,-1.4200624671153723,-0.7113640953351222,-2.686871981974075,-6.329261815623546
1776353625595,-5.534646050262451,7.810183921593427,-1.268629065980017,-6.575208816786066,5.326026127972326,-5.436287152404311
1776353625611,-5.396829232677817,7.8332281125724315,-1.3401554021857678,-11.081428683022917,9.016427709175344,-3.1932188780262734
1776353625628,-5.424063861083984,7.851634706878662,-1.740137301557511,-8.643441323884701,6.811114159208198,0.3230134663108017
1776353625644,-5.450250441741943,7.827393415069579,-1.889924396790564,-2.542443576549336,1.948931727300139,2.734741149328698
1776353625661,-5.588963915905356,7.797315672191977,-1.9186546705819665,3.2504639741206196,-2.7435427018479057,3.9659117755274687
1776353625678,-5.7023880505114795,7.7857929921805855,-1.6534968367196619,5.786082057254997,-5.18870389404875,4.9396969681380645
1776353625695,-5.732466962432861,7.757961566925048,-1.580174849268794,4.806233791095545,-4.25269989283208,5.673255016129202
1776353625711,-5.925649108886718,7.688380081176757,-1.5536884088814258,4.360566935959976,-3.198433727457578,4.903342859393848
1776353625728,-6.073789167565107,7.71935331158936,-1.5164284994147716,3.5366328920882864,-0.10041471977403003,1.6362078876131085
1776353625744,-6.002412615093588,7.688978047069907,-1.49353409217,1.6707451660381012,2.100018926835406,1.0118943398063873
1776353625761,-5.906943823894858,7.689425790837407,-1.5361808092415332,0.4231713069390158,4.455075409731796,0.8469925490662406
1776353625778,-5.820453288921714,7.6488745847404,-1.5584772505931554,-0.14765721727230416,5.440175664476164,0.002124935883814436
1776353625795,-5.7794531700134275,7.626130838012695,-1.5475534132577478,-0.7826238858326884,4.17164219597013,-0.23331782130460751
1776353625811,-5.72049536961019,7.601289826744795,-1.601123675403744,-0.7270070428034497,2.545448859784141,-0.16432928214948217
1776353625828,-5.785887002453207,7.637651764458417,-1.6883622522652149,1.2066061710139373,-0.055065091810348576,-0.05454957261057129
1776353625844,-5.821799442833662,7.6735647893607615,-1.6813292848885057,2.2971591037363073,-0.8464738815761428,0.17621311761421676
1776353625861,-5.850230587548017,7.679399486863613,-1.5553344225227832,1.7282962332629228,0.3556440547403029,-0.05449973357397135
1776353625878,-5.940462647137045,7.659948351940512,-1.5283999461069702,-0.04533175207796306,0.18808670779519637,-0.42134898045194463
1776353625895,-6.021865503582358,7.688678187340497,-1.5785283972360193,-0.21164146892163158,0.17765087243450445,-1.7357862827397823
1776353625911,-6.0131865225642915,7.705736874169111,-1.616087581910193,-0.20472230052942356,0.3003230442794904,-2.9317590231547737
1776353625928,-5.954527997368574,7.682543045586347,-1.6329961927436292,-0.9649219549454461,1.497946502678656,-3.517939944990431
1776353625944,-5.927145484924316,7.659500023651122,-1.6705556696787476,-0.8811000591820513,1.4715691658777132,-4.019188531714038
1776353625961,-5.871629933929443,7.627477576446533,-1.7450753424815832,0.4335362257262159,0.6815606182526245,-4.725334896131799
1776353625978,-5.8349681364864106,7.671619500511884,-1.6626245844185352,2.297630386789038,1.5058516995910054,-5.764694173642748
1776353625995,-5.802347138866782,7.707682163017988,-1.5218155992805957,1.0256328384350448,4.488551447514498,-5.654282458162199
1776353626011,-5.6660266973197455,7.797764000481367,-1.2681800070382654,-3.2819317228439258,9.848722971808186,-3.858916862179219
1776353626028,-5.577141960686445,7.760802927830815,-1.3151662146188319,-8.047071040467856,13.792044750429485,-1.3754353205268415
1776353626044,-5.564572401970625,7.743894463127851,-1.4296389814950525,-8.532304754578487,13.211892751196832,-0.5585978965636486
1776353626061,-5.5731023299068205,7.761551700371504,-1.5849629603281616,-6.487713239744557,8.717388366933845,-0.04972137591931274
1776353626078,-5.558587482342124,7.791928133934736,-1.700033839228004,-4.200756731080956,3.3580896127500375,1.3399424559482818
1776353626094,-5.610062818035483,7.823201808598637,-1.7227793395213782,-1.519555513665284,-0.8450275356585396,2.626254479977035
1776353626111,-5.745335211834311,7.810183921593427,-1.7310091154672205,0.6793358442130515,-3.662493428254346,3.5948561993378254
1776353626128,-5.86714080581665,7.896077075195312,-1.6476606779120861,0.053684006215830846,-0.8454962040294789,3.59570356968173
1776353626144,-5.875669564709067,7.851633537834882,-1.6268610509894788,-1.551009388566839,1.12823711408574,4.0104292409903195
1776353626161,-5.9760763968318695,7.729381369128823,-1.788619885175675,-0.04862206230848448,0.8864196026067276,2.5111203290156574
1776353626178,-6.119580027881264,7.710975359344482,-1.8517666617013513,2.3162155449640545,-0.6646210554199052,0.02090117927303238
1776353626194,-6.0806730818599455,7.6915213018119335,-1.7823349596872924,3.8037378983088015,-2.733607124483064,-1.2348213623101427
1776353626211,-5.921607724541425,7.7003499204337595,-1.5824189749337731,2.7166046492047866,-1.807339771371659,-1.9021146225211096
1776353626227,-5.846789507183432,7.671618915989995,-1.464803672248125,1.2524795357487413,-0.7750626529780728,-1.9476164889980885
1776353626244,-5.850828553441167,7.661293921330571,-1.4549275903999805,-0.21161788342465387,0.0187252837747073,-1.8860167204210359
1776353626261,-5.812970239689946,7.639297193577885,-1.5692508658029138,-0.6547359040610456,0.43429186876400144,-2.210427013777958
1776353626278,-5.799204749187827,7.630469159477949,-1.6205767100229858,-0.5110896620179786,0.21921929700149628,-2.0705496487745627
1776353626295,-5.7430906477779144,7.662491606682538,-1.6271607645884156,-0.7863554102753367,1.9877041498973627,-1.8956600937554478
1776353626311,-5.634752438133955,7.681644050920009,-1.5637139822028576,-2.5229026187773407,1.460724746466437,-0.030467606257575705
1776353626328,-5.724684637993573,7.665333552110194,-1.752856059485674,-1.3156675367512334,-0.6869312280135172,0.7274966286287221
1776353626344,-5.783193525585532,7.640494878929853,-1.8402445662118494,1.3792939505210755,-4.219983286707719,0.46080031318049697
1776353626361,-5.863548334282636,7.7061852024585,-1.8568541940987109,3.974901158248852,-6.717264371804461,0.4383431847980239
1776353626378,-5.858012911987305,7.71890615234375,-1.8014881345771252,4.7240465516996055,-7.388651049762381,1.1614877556258314
1776353626394,-5.889585861858725,7.787738281029462,-1.9134172083199024,7.833051331693737,-1.7048549173097334,0.4228168841541156
1776353626411,-5.866392033275962,7.83382666298747,-1.9701301524057984,8.860158957380976,5.168917262910046,1.449234127126654
1776353626428,-5.8250914701163765,7.590515334752202,-1.631499962836504,6.221419531931392,10.099574475681598,0.9732403783025811
1776353626444,-5.887640573009849,7.581088750237226,-1.558327320728451,2.7652067812347165,12.331844220981845,0.4912107166037738
1776353626461,-5.7998038841247554,7.604882298278808,-1.5872076705150304,0.026674450029838547,14.162281984579195,1.6048166583528474
1776353626478,-5.79725887581706,7.542182388737797,-1.7118552099250257,0.332231713730233,10.77132187300506,1.948917640034976
1776353626495,-5.864595797508954,7.560289123314619,-1.7531554808236658,1.233171764903879,5.472751397948893,1.0424046881071285
1776353626511,-5.923554182434081,7.609221788787841,-1.7351992606334388,1.3920032250191767,1.4071359360121631,-1.0002220801233646
1776353626528,-5.934177867779136,7.677904864391684,-1.5969338224984704,-0.8685378471945169,1.7699062792951694,-2.0223357703102662
1776353626544,-5.940461478093266,7.684637387517094,-1.5664076052010059,-4.054843399841974,4.230302421883138,-3.5204421421041827
1776353626561,-5.9498904006958,7.674761890190839,-1.5928934610664844,-7.076527199505254,4.234403950479731,-5.0279609414612
1776353626578,-5.948393440136313,7.734018965801596,-1.8368027551949022,-6.0406389387531405,2.9578232384709535,-6.106802981243054
1776353626595,-5.8729760878413915,7.747485181096196,-1.9101248887762425,-4.128229940492353,0.29382129115902006,-5.887283262639783
1776353626611,-5.667523657879233,7.798213497814536,-2.02669316662699,-0.45095710345200946,-0.8394648268272403,-4.334185757177624
1776353626628,-5.603627816551923,7.823650136888027,-1.964892690143734,1.5173651573758256,-1.9084449272212423,-2.8570175437277934
1776353626644,-5.581780141881108,7.8330778904467815,-1.911771194678545,3.1459067979758295,-2.433327462576974,-1.2315296380170198
1776353626661,-5.660640328106283,7.797764000481367,-1.8008897302925586,4.064753577440839,-2.0395506217830484,-0.3678015513390876
1776353626678,-5.7787032284289594,7.693017093327641,-1.5885539705574512,2.731669271749485,-1.569213763695627,-0.20866764190960507
1776353626695,-5.793218660515547,7.603683443883061,-1.538275443433225,0.9645461878193896,-0.22421894211309273,-0.6520201568140251
1776353626711,-5.8818047064632175,7.530511240166425,-1.5506959490671752,-0.4834283030139261,-0.5961128706625022,-1.4100113389310327
1776353626728,-5.844693996208906,7.605030182316899,-1.67534407299906,0.35588284455698893,-1.4944694027825907,-1.887505061329864
1776353626744,-5.786037224578857,7.691672108459472,-1.7730577205151319,2.4137207642342178,-1.6318572705552221,-1.0299447155137327
1776353626761,-5.687126768493652,7.783399959564209,-1.8207919699840247,4.300568419856468,-0.14001103393988645,0.6533919576201399
1776353626778,-5.716754429516196,7.682543045586347,-1.6804316053964197,3.489579078565834,-0.04769537105675771,1.8213301332259608
1776353626795,-5.772718893322348,7.638250899395346,-1.6424238001719116,2.0460711045628837,-0.6123661595661938,1.6036413322070762
1776353626811,-5.8616030454337595,7.596052510613203,-1.6211751143075526,0.30538037247306177,-0.6841708177326272,0.6838837897049279
1776353626828,-5.851278635296225,7.65486008889079,-1.6392814104929565,-0.9351508679006529,-1.1738459157119117,0.7130356774127771
1776353626844,-5.873574053734541,7.670871312493086,-1.683723486548662,-0.803667058335263,-1.3179104001199362,1.080616608305588
1776353626861,-5.919663020214438,7.62987002454102,-1.7190379610359667,-0.7012613384181743,-1.9368841273778827,0.5098458738979487
1776353626878,-5.938965686577558,7.592311570519208,-1.6660661031745374,-0.9820688246916457,-0.7112524644308749,-0.75280360008153
1776353626895,-5.840953056114912,7.586175844243169,-1.5586261575445532,-4.111242833139707,1.4309647584790453,-1.1283299619697698
1776353626911,-5.807434817394614,7.6279253202140325,-1.6355404703989624,-4.897824920318124,2.739232639038216,-0.9319722686156583
1776353626928,-5.775113094982505,7.640196772766113,-1.819744068366289,-3.868831735533139,1.287364940377993,-0.817284214384447
1776353626944,-5.709720877617597,7.6544111760795115,-1.8980046812631188,-0.5777123410384879,-2.786191470242523,0.38553616419945214
1776353626961,-5.699097776794433,7.634808649986982,-1.8798985312081873,1.2585872189706138,-5.110880718645625,1.1842306847363873
1776353626978,-5.717053704723716,7.605030766838788,-1.7901158228218554,1.5045436116432422,-5.883158255267919,2.173427452157176
1776353626995,-5.714958193749189,7.6937652813464394,-1.8104662446722388,0.311026164152312,-3.638484459548105,2.998034909992346
1776353627011,-5.673509746551513,7.784148147583007,-1.816751754682511,-0.6799849789884672,3.0032713172082186,3.600582886070058
1776353627027,-5.622932236480713,7.888594610485434,-1.8610441931344568,-2.7273150261536014,5.5158387925542725,4.597942476600952
1776353627044,-5.647022721642255,7.714265633061528,-1.982848910333961,-2.296442787647102,3.1455211057311354,4.954360957399259
1776353627061,-5.673658215111494,7.6470789334952824,-2.1104902247324584,1.1578182364942422,-1.5006817799978347,4.862987540456474
1776353627078,-5.791423593792319,7.605180988964438,-2.0928328413583337,5.215526900693036,-6.270334785446084,3.9255940226305297
1776353627095,-5.7400978957027196,7.648276618847251,-1.8415910123847423,7.208837782125332,-9.287671596589474,3.552963234063552
1776353627111,-5.676950242394208,7.724740265324711,-1.691653987286985,5.678667087272792,-6.549340329078289,4.003638752294857
1776353627128,-5.636698311504722,7.759905686730146,-1.5568310908213256,3.279215655431788,-4.279449474942789,5.048808813242195
1776353627144,-5.7691270063102245,7.7308754070788614,-1.6065103368781506,1.176171701846007,-2.0674470353440846,4.399291974119833
1776353627161,-5.823446625518798,7.669076830291748,-1.6493066915534436,0.7006413386684369,-2.234622958912728,3.463157132091874
1776353627178,-5.869684060558677,7.649173859947919,-1.713052456885576,0.8476750343747129,-2.6904029763315602,2.4018014438023108
1776353627195,-5.84813624561727,7.705736874169111,-1.800889876423031,1.6881623618650452,-5.051617728538362,2.700622646877192
1776353627211,-5.813270683941245,7.748233953636884,-1.870471362171322,3.2541702055189976,-5.618347552278293,3.1532323893040797
1776353627228,-5.807883730205893,7.804497692650556,-1.833211452704668,4.148847293388859,-3.8071209763820737,3.3373796254129124
1776353627244,-5.82853371952474,7.756763881573081,-1.7170926721870898,2.957410438912991,-1.7789210617825284,2.9235493492158295
1776353627261,-5.828383497399091,7.73132548893392,-1.7066181860543785,2.3044759438846834,-1.6476691584838017,2.7557260517799156
1776353627278,-5.82928132302165,7.736113307732343,-1.687764140241593,2.5962240591871932,-2.513986874032947,2.4100535929801556
1776353627295,-5.8177603965759275,7.759905686730146,-1.6404783651925623,2.719481652949243,-2.391098964259724,2.4096331094593766
1776353627311,-5.831676693725585,7.7215996292114255,-1.621175260438025,1.643806473064748,-2.288887104321187,2.2190245143957115
1776353627328,-5.847388057598471,7.708579988640547,-1.653945311139524,1.3956652736313615,-2.892851704321442,1.9295568285023401
1776353627345,-5.825092054638266,7.756464021843671,-1.6907566000558434,1.8862229067566056,-2.5671603236083196,1.6516603368366163
1776353627361,-5.766583751568198,7.772924158257245,-1.6933005854502319,1.7239152005188887,-1.8852952816899533,1.8957907211233243
1776353627378,-5.798007063835859,7.788935381859541,-1.6693581304572522,1.6156695087788804,-2.333491654695955,2.2018973881650816
1776353627395,-5.899911441040039,7.790881839752196,-1.6735482756234705,2.606008945503471,-2.5426760164245277,1.1953889726843667
1776353627411,-5.8993117215812205,7.816617754033207,-1.5767325998604296,1.1464102197547341,-1.7479331338484154,0.6091228335666427
1776353627428,-5.825839658135175,7.771576835301518,-1.5408192826971412,-0.4016105608438276,-0.7468988481832012,0.34148710030327634
1776353627445,-5.820751979607343,7.7847449444323775,-1.5713457922555505,-0.7635642963146207,-0.37948248216070524,-0.533451861443159
1776353627462,-5.79112373406291,7.813923692643642,-1.5652106505014,-1.3968347300833146,-1.0886817810549037,-0.17339331670405933
1776353627478,-5.709570655491948,7.8621081700980655,-1.649007416345924,-1.0635673889201784,-1.05018384668495,0.5433577168129402
1776353627495,-5.702538857159018,7.745690114372969,-1.7375931700326501,0.4328579559251219,-3.0526516639167065,1.443999427458074
1776353627511,-5.7415942717403174,7.717857520073652,-1.766173806220293,2.5872254983991128,-5.190396500302444,1.5605926775808958
1776353627528,-5.814019456481933,7.764843727654219,-1.6244668493293224,2.728809130034542,-5.646166485880932,0.657389219110184
1776353627544,-5.709122911724448,7.789983429607749,-1.4288907934762536,0.7902173486424501,-4.073957684234254,1.280990026004844
1776353627561,-5.737853916168213,7.793126403808594,-1.414974350196123,-1.1796423984397253,-2.373400236572928,1.5706558941058517
1776353627578,-5.757904186028242,7.702445431408286,-1.5617686933539807,-1.0331536237631693,-2.0050378893503855,1.3974099600774765
1776353627595,-5.791722868999838,7.648425671929121,-1.5668563718818127,-1.3370018460671798,-2.3743769536242403,1.3342539755867189
1776353627611,-5.79067540577352,7.5981474370658395,-1.6123460572943091,-1.095584434263142,-2.409371641280212,0.8177025634711103
1776353627628,-5.826587846153974,7.677755226787924,-1.6177334494210778,-0.6203897108502547,-1.6558769114320413,-0.0655750453957057
1776353627644,-5.752817676544189,7.726536501091719,-1.5527907293893395,-1.304948622065956,-1.6607086299395906,0.01846509625601213
1776353627661,-5.741593687218427,7.716660419243573,-1.5589260172739625,-1.4436580247212791,-2.5021213413407537,0.5691917334097498
1776353627678,-5.793368882641196,7.701995934075117,-1.6084557718574999,-1.0270711268638615,-3.780141729160523,0.10181779003993875
1776353627695,-5.797708957672119,7.698256163024902,-1.5879552740119396,-1.514070658318352,-3.7492731160934736,-0.5818370282452351
1776353627711,-5.787982513427734,7.696310874176025,-1.61010193162933,-2.154947948470883,-2.462340185180484,-0.8531426008053081
1776353627728,-5.814766475456953,7.718306432884931,-1.6753437807381153,-2.7540347261866915,-2.4467665000992085,-1.0742985766016204
1776353627745,-5.810876482281088,7.72548962238729,-1.8034332772955297,-1.8651364052414838,-1.899884352313689,-1.7888029581293619
1776353627761,-5.775712229919433,7.756465190887451,-1.803882482367754,-1.57272127927784,-1.2773535906020468,-1.8044698112597843
1776353627778,-5.691764365166425,7.75706257225871,-1.8037328447639942,-1.4395481718316356,-0.4305523401934195,-1.2240029829950771
1776353627795,-5.679344444054365,7.7385069248706095,-1.876457012452185,0.17676956458816126,-0.8865306999024462,-1.3041725418215135
1776353627811,-5.708523776787519,7.736261776292324,-1.842788259345293,1.665508545378817,-2.531336621741837,-1.1442300020273248
1776353627828,-5.682787277984619,7.693767034912109,-1.7615351866342126,2.691535933960136,-4.459707558649534,-1.2586789996375858
1776353627845,-5.738600935143232,7.703043397301435,-1.5685025316536425,1.4945382382828198,-2.985302156718973,-1.7376144255598185
1776353627861,-5.733663478741049,7.694962966698408,-1.5083482149422167,-1.0516378232045165,-1.1235729486562676,-1.9080884767239321
1776353627877,-5.77795679397583,7.687781530761718,-1.6023212146252392,-1.8903829188479666,1.01626149872867,-2.7007150678743983
1776353627895,-5.7778065718501805,7.696608980339765,-1.7781446683906017,-1.1262531575752628,-0.12515697332069545,-3.1977090870753218
1776353627911,-5.7788546195983885,7.745392008209228,-1.8185475520581007,1.1947861017684072,-2.124090861348058,-3.0870480696900677
1776353627928,-5.800999815911054,7.7835478436023,-1.8131603060618042,4.1152171494630085,-3.529763429330546,-3.6156878494195412
1776353627945,-5.810876482281088,7.733120555657148,-1.6035174386724829,4.000690245007528,-3.3766670869622373,-4.088997333899799
1776353627962,-5.839307626995444,7.7567627125293015,-1.491738148663938,2.339718012454657,-1.8478039464489302,-4.821018162440861
1776353627978,-5.819555463299155,7.770829231804609,-1.3302797587290405,-0.9257943625113818,0.7186500929105275,-5.852211095025414
1776353627995,-5.716304932183027,7.753769960454106,-1.4287407174810767,-1.9301888344439777,1.2737801210056607,-5.240608209098969
1776353628011,-5.7245355849117034,7.705138323754071,-1.534684579334408,-0.6958374211652436,0.9795210574095252,-4.647656435361713
1776353628028,-5.8358659621089695,7.610866633385419,-1.5526412379160524,0.33972101615515204,1.5994085359123724,-5.0358963406162855
