ts,ax,ay,az,gx,gy,gz
1776353233126,-6.8402353121101855,7.458539059889316,-1.5355774365209043,-8.574773163290333,23.341939262086797,42.33462238147916
1776353233137,-7.100454520526528,7.867047964587807,-1.3503257908053696,-9.270438175539887,22.077416822170854,42.677269066476605
1776353233154,-7.360075763049721,8.467693306079507,-1.2668284462988375,-10.836902788094584,19.434937868150687,47.50367197930437
1776353233170,-7.895778676770627,8.852711445075274,-1.4239482225075364,-10.531996313356045,17.104974219604454,49.993866743137225
1776353233187,-8.079384016583859,8.741680343085527,-1.5855562500461935,-8.47622207130351,14.81966976294635,49.113397302514635
1776353233204,-8.389432547052204,8.405444647437333,-1.7419279843665658,-7.766702020322587,17.967458064595107,43.16108551633445
1776353233220,-8.515427701678872,7.721899488940834,-1.9375037479586898,-8.57262592257001,22.42168226200159,32.42335195234658
1776353233236,-9.172187144580484,8.112005890986323,-1.9223904961094258,-12.774726493370165,28.59400639417893,10.279234917835968
1776353233254,-8.746469330927729,9.106946902906895,-1.9915235074378548,-13.57980259838686,35.899528919100376,-2.489807577484279
1776353233270,-7.9912468834474675,9.715670921435951,-1.8168961315892636,-11.898080251135491,35.495629097626264,-3.613697703050129
1776353233287,-7.734618977521359,9.619454526740313,-1.6780325814306736,-11.64480061501214,27.49500846615637,-2.006841486178092
1776353233304,-7.205201719941199,9.028836073744296,-1.8345538072243333,-6.719529006401143,10.47902051237978,4.2971785115940255
1776353233320,-7.461680280524492,7.784747867041826,-2.4564473961889743,3.650222139636772,-0.44618104031402517,1.7821639075344036
1776353233337,-7.837569356647133,7.286005733710527,-2.5576027085915207,13.915555914964472,0.22352722537707026,-8.5348524151389
1776353233354,-8.431780573438107,6.947226198798417,-1.9433399067662656,14.849013963168018,20.566519213608796,-26.15462823777097
1776353233371,-8.494478437152505,7.011719421496987,-0.8662479965120553,3.2700239283562436,45.2999695002077,-37.5806023983806
1776353233387,-8.405594869562982,7.098959898054599,-0.4700082062780857,-13.398027358910728,63.85646990901388,-49.21704542316958
1776353233404,-8.194455041614175,7.389404733386636,-0.7724255112156272,-22.346116464119156,59.612040094606215,-61.78217560902686
1776353233421,-8.115147403882444,7.823803281623125,-1.6030641419470308,-17.05848795211335,41.7390845273674,-72.05033366757635
1776353233437,-7.904308312445878,8.271518992072343,-2.1721359490454195,-3.8631229780474774,4.6905564266517406,-85.0514689791014
1776353233454,-7.797168080414831,8.64995366102457,-2.3312004295811057,3.9820647460277256,-22.02710052610266,-92.93822011182343
1776353233471,-7.363816703143716,9.076867990985512,-2.751831733749807,10.249763505341008,-47.999362713034294,-97.55642519837086
1776353233487,-7.186646364814043,9.144504772406815,-3.1256269063331183,20.22642360426635,-70.26673904885425,-101.54194303191085
1776353233504,-6.90787033996582,8.927679300037026,-3.9257388813756404,40.39895360088671,-89.73010074923594,-108.56188168725573
1776353233520,-6.7003241525948045,8.792706765967607,-4.059515045267343,54.75671133064344,-91.08956111106777,-114.18608484608684
1776353233537,-6.510134758216142,8.556278767505288,-3.4899943253576753,66.96763473633303,-72.45412762111835,-119.87981933066868
1776353233554,-6.5684928391605615,8.25550718394816,-2.8514902317233384,65.28809804961607,-46.224859076097474,-125.21217533645431
1776353233571,-6.744017748370767,7.592313324084878,-1.4029985195897519,52.65541046267819,-14.500230353201317,-133.15769341679513
1776353233587,-6.44085254767537,7.409157481604814,-0.29403482264801856,28.0516705910597,0.8876836144900031,-140.0270742122654
1776353233604,-6.0266556604683394,7.399879365649819,-0.5072675312228501,24.657066573563363,-21.08048753355767,-137.66277691030882
1776353233620,-5.151424731555581,7.435193840137123,-1.3552639778599143,35.127557033443445,-60.8079037654379,-128.40758371699638
1776353233637,-4.612131392127275,7.615807012397051,-1.717686108035594,50.30939416203513,-104.51565713237267,-106.37322952999519
1776353233654,-4.5525756258308885,7.465570858222246,-1.77140600778535,53.034946999382875,-115.94130002880755,-92.18409892556231
1776353233671,-4.808455928260088,7.018752973395586,-1.8140528709873556,49.63697911372031,-108.92675722290699,-82.59120068911696
1776353233687,-5.181652112036943,6.830508283343911,-1.7477639970436691,37.09829200523473,-75.63034317009269,-72.91843022051746
1776353233704,-5.347449407958984,6.798485836139321,-1.6084513879433273,23.95409496644919,-41.498832623312204,-66.74574238076683
1776353233721,-5.27352843170166,6.752696437127888,-1.4665950126443057,12.211022443432551,-9.367519069307862,-59.113340662546904
1776353233737,-5.072118555128574,6.854451468989253,-1.3661876690648496,2.8794177894410846,19.64850080802406,-46.42626427924822
1776353233754,-5.109526787024736,6.943933879254758,-1.2784998871311544,0.32334376999019526,28.980615591769162,-36.9484035038988
1776353233770,-5.080198401209712,7.266104224671423,-1.1411329322058708,0.9548845650732892,27.289554668375093,-26.165939031036512
1776353233786,-4.945075645014644,7.370850839564204,-1.1412824967443942,4.971888930356804,17.333514056780373,-14.63684608943262
1776353233804,-4.86442039206624,7.420380301886796,-1.0239660308748484,10.639488976740058,-0.8191705205341341,0.6421651009761958
1776353233820,-5.043386966162919,7.380427061682939,-0.9364287633277475,13.757698290414428,-11.938998206905746,11.361922354120539
1776353233837,-5.496189770618081,7.142203411975503,-0.9795241009496152,15.218429867070036,-20.403337456600728,20.150319928986775
1776353233854,-6.098032797461748,7.342419110327959,-0.8496393184732646,11.474143215957493,-18.682177597081704,15.477311112086444
1776353233871,-6.136938574439287,8.06217598441243,-0.5668235897801817,2.2013714635989907,-9.524929316467269,16.114038421987956
1776353233887,-5.286248797065019,8.218696917945145,-0.6019885727941989,-12.154168802555011,4.015599267305196,28.42461941030991
1776353233904,-5.168932331195474,8.25086871049255,-0.9326875309728085,-13.576768286848083,10.811710489114638,38.88759324700839
1776353233920,-5.282807132178545,8.619875041364132,-1.1894652936983854,-10.696763528025201,17.743733510784047,52.94102848320061
1776353233937,-5.575199009925127,8.231565751868485,-0.6407447121679782,-13.779478909903952,26.00660096298387,68.91071427217494
1776353233954,-5.6778492370605465,7.793126988330483,-0.5392899784274399,-17.923372608597262,30.50943390916604,77.61269629366217
1776353233971,-5.797410266986489,6.8397858147770165,-0.7035920673556626,-19.176864293003632,32.863762550029,82.84970285863443
1776353233987,-6.282237272211909,6.310069281989335,-0.819561940921843,-17.61513812418563,28.77191574658484,80.52136650265795
1776353234004,-6.60126405890584,6.380847868567705,-0.8529311265602707,-14.021319686714826,22.813465327888107,74.07582626594363
1776353234021,-6.840685393965244,6.83050945238769,-0.6385002942420542,-11.628787236503046,18.375141810869415,67.88219023600857
1776353234038,-6.836793062701821,7.371598443061113,-0.2208614498876035,-15.388252275498647,16.563107991990663,63.943131349203
1776353234053,-6.899790493884682,7.596353539386391,-0.03306640329957008,-24.169915283843252,18.703243608029315,62.449280185262005
1776353234070,-7.05451519165039,7.784746697998046,-0.07227116322368383,-34.22879293112898,22.497451258011836,60.56765869157187
1776353234087,-7.142054358893632,7.688081975013017,-0.49065819559693336,-46.11259467180456,26.677025011155642,55.23626915755379
1776353234104,-7.126192772895097,7.578397611457109,-0.7793088409885763,-50.72987085262488,29.666656867478167,49.46434266735365
1776353234121,-6.77334730322957,7.279122403937578,-1.353767747952789,-52.28520396437975,33.202024253579296,45.17663677436478
1776353234137,-6.347178823199868,7.151630581012368,-1.5782241535924375,-53.770066599373,39.98159830674767,43.80418539273159
1776353234154,-6.183924197497964,7.040599479022622,-1.6804263446994125,-54.793997333322544,45.87726391904635,44.02621776717578
1776353234171,-5.867740525275469,6.853553058844804,-1.9651869969151914,-52.420673936377774,50.65473535666015,46.01974166513282
1776353234187,-5.7710740487247705,6.793548379737138,-2.1131788792945443,-48.190672896591764,52.32672126924967,47.43336884217743
1776353234204,-5.78334491675496,6.831855606299638,-2.071280496372282,-43.803092562464386,51.28132325073878,49.53764084243164
1776353234221,-5.887941601783037,6.976255309405922,-1.844728433627635,-38.333084339240905,47.976457673652654,53.284983149424114
1776353234237,-6.092945118933915,6.987927627021074,-1.461507114920765,-38.12100013532284,44.81096210658064,55.48078309965108
1776353234254,-6.215797007098794,6.9982508681148285,-1.406440038345754,-38.48929076555909,41.323006478603155,57.22599888542689
1776353234271,-6.411673214942216,7.00333971568644,-1.5364757005348801,-36.4155360505165,36.74899613108028,58.35964977820351
1776353234287,-6.653337945014238,7.020398402515053,-1.732051464127004,-33.768117162179124,32.997466918126584,58.16173821681322
1776353234304,-6.835147049060463,7.0200991273075335,-1.762727172897756,-30.282914100437154,30.235970210271656,55.92577675426658
1776353234320,-7.004687038642167,6.96473321391642,-1.727262914676219,-25.499604558630285,25.819641609927697,53.390116836223534
1776353234337,-7.076811779132485,7.115269227820634,-1.5420119996130466,-24.68029946202516,24.00732433819839,53.21029161575544
1776353234354,-7.1600102868229145,7.216123803710937,-1.5753811852514743,-24.005616790905886,21.851776400297606,52.770505980382076
1776353234371,-7.391200384631753,7.729531591254473,-1.8246774331152438,-19.564641452941938,18.46723666654328,53.26404178942886
1776353234387,-7.531261766272783,8.30608469401896,-2.00184828290157,-13.518319796799345,15.730383281213756,55.796566650642866
1776353234404,-7.656059235547483,8.435819911956786,-1.9653370729103683,-7.560031595095402,13.201785778772505,58.91780600698778
1776353234420,-7.988553698840737,8.36309545200765,-1.6892553286474197,-5.308303494623435,13.215014147647528,60.19285206086742
1776353234437,-8.342447508515416,7.850438190570474,-1.5518879353307187,-6.809448019937538,16.641238525906438,56.26449266539668
1776353234454,-8.51707371532023,7.608773460498452,-1.5734356772068887,-10.034410202131445,21.32344931516607,49.425120306044846
1776353234471,-8.622568518231809,7.231087564086914,-1.901890436655283,-10.023227474912842,26.888395460305443,35.753513135023844
1776353234487,-9.11068608943522,7.950096250152588,-2.0646956380892543,-8.26479954196129,27.268486949880188,19.74423103188367
1776353234504,-8.882937656512857,8.490437637329102,-2.1333798827368766,-1.886076698019685,27.591775171222526,12.332168654967422
1776353234520,-8.160937387415766,8.935312571394443,-1.8495177867960184,3.8720303984988202,28.453145695378467,16.205730296500793
1776353234537,-8.248774076300858,8.596082370105385,-1.432177852322906,2.514562530913932,23.332600685944097,15.17107787310163
1776353234554,-8.495526484900713,8.487446054297685,-1.478565655618906,1.8553107512335973,18.39005040628026,8.937241057259154
1776353234570,-8.571392750006913,8.195802364569902,-1.9298723762974141,7.0452731076369215,14.168313041616317,-0.18885643809814506
1776353234587,-8.364593581610917,7.655161117663979,-2.103152721451223,13.478714091123381,13.75022691723608,-7.532448729905952
1776353234604,-8.141932534955442,7.40556559459269,-2.06813766830191,18.450401957786493,10.855410893198025,-15.070720196079339
1776353234620,-7.658154454261064,7.194577157813311,-1.9346610718786714,24.547250792087898,4.944843515677669,-24.40600418759933
1776353234637,-7.346608963233232,7.189039397430419,-1.9259819447301327,31.5935591002709,-5.804713959537145,-31.716379561926068
1776353234654,-7.319374919348955,7.39883248694539,-1.8546052461281417,39.73746002505474,-19.893598731295384,-39.402982246304624
1776353234671,-7.1701862284004685,7.904308312445878,-1.4935297082558274,46.301377685369125,-39.48055270470846,-44.9182507180632
1776353234687,-7.118262272156775,8.289177398359776,-1.0899570909157394,45.49985840136271,-53.183633387424884,-46.36339580303284
1776353234704,-7.2084934549629684,8.371177051654458,-1.0799313714638352,42.21024122159864,-62.67785246583648,-48.860130472995976
1776353234720,-7.420230956543982,8.189517585211991,-1.3141134906955063,34.3077089367993,-63.84130005886728,-56.497989512362736
1776353234737,-7.361423086005449,7.741651652637124,-1.6852151864111422,27.482726078481395,-57.80299619103664,-64.18332861174484
1776353234754,-7.29049486182332,7.6186495423465965,-1.852809010361135,20.63593954878551,-48.742367766421204,-72.04313464819117
1776353234771,-6.8604358040958635,7.3389774454414844,-2.25309033107087,15.654662096527703,-34.61360237387291,-80.3586167551149
1776353234787,-6.342990139338374,7.230191492030024,-2.5405437295019624,14.759396758615573,-26.134287934422673,-82.94574897874315
1776353234804,-6.139930741992592,7.220463294219971,-2.6017455094397066,16.147004330017023,-20.653921729322864,-83.62548940494281
1776353234820,-5.8297331584423775,7.108985032984614,-2.6587575826026497,18.376099744900507,-19.070103313634455,-81.20503428763038
1776353234837,-5.802648167639971,6.972963866645097,-2.614464705759287,19.84186004833254,-19.83580508563332,-80.31023852522368
1776353234854,-5.778107600623369,6.838439076343178,-2.615811444193125,20.707922912448275,-22.391065939047007,-79.64635779827678
1776353234871,-5.627572171241044,6.790854902869462,-2.6955682869970796,23.32344994000357,-25.592006772816806,-76.58753954075662
1776353234887,-5.457283993640542,6.759130561828613,-2.7757738964818417,26.9654826828255,-30.36396454022311,-72.79061689057902
1776353234904,-5.403564678412676,6.744765936389565,-2.8021098224826155,32.6555817992216,-36.374643707955634,-68.48455144910116
1776353234920,-5.455339873835444,6.84936379046142,-2.5131600480139253,36.42267701329375,-39.403665265221626,-62.89240919823409
1776353234937,-5.543177147242426,6.896050722834468,-1.9954142312660812,33.64272513430144,-39.19260558967906,-58.41340336697151
1776353234954,-5.791126072150469,6.842478707122802,-1.7453693569920956,25.529227089060633,-35.79198076042936,-55.849746503520585
1776353234971,-5.868938210627436,6.831556331092119,-1.7980423780374228,20.744653962257313,-33.79271267338034,-55.290292538794006
1776353234987,-6.030396016040444,6.9808940751224755,-2.0980650429233907,19.60085170082676,-32.09461153249928,-54.73669546128072
1776353235004,-5.993286474829912,7.212384032660722,-2.103752002518624,18.423323672821976,-28.356022112928176,-54.50964972798574
1776353235020,-5.934030568262934,7.356186354395747,-1.9858372784949838,13.928627189488584,-24.42184510383188,-54.847429903199554
1776353235037,-5.75835485240519,7.841011021533608,-1.9297231770850718,8.943429208647187,-18.349366384489077,-54.42030402345281
1776353235054,-5.36899839194417,8.223933649554848,-2.0997114949561655,5.67036755365758,-11.015485767907384,-47.73721322250003
1776353235071,-5.2567696046024555,8.462156130218505,-2.0911814208894968,4.075391597073134,-3.805842450346812,-39.64698392421416
1776353235087,-5.008222129279375,8.509741472736,-1.916106155142933,1.324918387651781,2.0791823675552243,-29.559320444671418
1776353235104,-4.942082308417558,8.492683370429276,-1.9384020119726657,-2.134793767777468,5.069290416128948,-14.630323258775258
1776353235120,-4.86471966727376,8.322844105640053,-2.169142758578807,2.1180442229418928,2.5770214092225254,-2.147737616584877
1776353235137,-5.041290870666503,7.930493724060058,-2.587828773898631,13.034487125242213,-4.694539280711504,8.759382077498376
1776353235154,-5.632808902850747,7.6101196144104,-2.3817780857823787,30.85760963229661,-16.125955394542338,13.702754541183554
1776353235170,-6.471828116175532,8.169317093226313,-1.8667261842936276,35.55931378144746,-18.81855598423935,6.674592764964806
1776353235187,-6.63313686850667,9.440637590247393,-0.5645793179847299,27.399983459328567,-10.488079904540156,6.595946551766694
1776353235204,-6.252608442145585,9.436896650153399,0.015416180318593977,9.331770712965662,0.8938557042613146,13.34858020441442
1776353235220,-6.427085303607583,9.153481859588622,0.08065876007974147,-3.5188421702911072,4.518351562863264,14.30123620682758
1776353235237,-6.093694475996494,8.52799842943847,0.0399564550742507,-15.742414659436733,15.086590140615865,18.22465225288652
1776353235254,-5.568165458026528,7.194726210895181,-0.2606646140962839,-27.58097322705015,27.843489840252296,22.582801301880313
1776353235271,-5.516542238295078,6.906225495368242,-0.4186826543189585,-31.709446919918506,31.219855545117408,19.349717597876438
1776353235287,-5.37528317130208,6.9158017174869775,-0.9609691842138767,-28.523086832479397,26.068407344783317,15.081202828908017
1776353235304,-5.057602538520097,8.033595202094316,-1.259047729294747,-16.978151267095658,12.782771602438794,20.864296678401132
1776353235320,-5.044133985137939,8.55433347865641,-1.2246309342995285,-7.787371880298338,3.169187497761818,32.06153975653808
1776353235337,-5.155166256171465,8.965538198310137,-0.8180655648842453,-3.6280854965367606,-4.899278469950867,44.81526512575775
1776353235354,-5.82180236544311,8.825178125983475,-0.38486484813019634,-9.270368166100894,-9.84071799010093,55.96732821008235
1776353235371,-6.26263474611938,8.653394156867265,-0.37199528355449435,-17.332272669898725,-8.100339685804785,57.78640566154268
1776353235387,-6.655432871466875,8.141632967486977,-0.721548433676362,-23.795868511683967,-1.6409548690862674,56.192219018694196
1776353235404,-6.635680707770586,7.662194669562577,-0.9982289475500583,-32.13591710150493,9.860236963201535,52.36171574346223
1776353235420,-6.55652183085978,7.457340790015459,-1.1667210355140267,-35.290494611188684,17.488709615101403,49.06078777043261
1776353235437,-6.382194022479653,7.214179683905839,-1.4716826181069016,-35.92297354342645,20.808335230983925,46.303156949647914
1776353235454,-6.13514233867228,7.12439653712809,-1.643316365097463,-32.7546161270922,19.416088253588743,44.12712015178438
1776353235471,-6.010644436866045,7.112575750952959,-1.6418201351903379,-30.25783706089945,20.164502816798308,44.11421109425306
1776353235487,-5.857864443427324,7.062297516089678,-1.5249534589149056,-29.623613015328747,19.341183276508506,45.64943271399682
1776353235504,-5.966650981360673,7.158963408118486,-1.4568683492042123,-29.635951752064376,20.733257791627146,46.771998209750514
1776353235520,-5.9394169374763965,7.134422841101885,-1.4797626103185115,-29.351836373159355,20.917862436966956,47.892039950605884
1776353235537,-6.142026837489008,7.300970078608393,-1.5173217949926852,-27.959251301400258,19.39500175207362,47.298155002273276
1776353235554,-6.2888207422554485,7.589470209613442,-1.456867910812795,-28.7323382154392,18.007580303327057,46.7752357194171
1776353235571,-6.322787893787026,7.7778633682250975,-1.397611419723928,-31.11952689639909,17.577010300691327,46.86504929190818
1776353235587,-6.193351366534829,8.144325859832763,-1.6183269583348183,-32.11681306239641,16.326935418417253,51.45236826302882
1776353235604,-6.097881990814209,8.322095917621255,-2.038658987296,-29.185193417789385,15.908219209086086,58.279449696969216
1776353235620,-6.109854168158769,8.178593455615639,-2.1948802802950143,-23.976287958609852,15.940416720833525,64.26432099492285
1776353235637,-6.2692176316410295,7.69316848449707,-2.2101440465308726,-17.01721824160084,15.354652867424063,67.49907809527338
1776353235654,-6.465542167773842,7.215974750629067,-2.0826529542580245,-12.875984047815605,15.077857743762003,66.3046487641674
1776353235671,-6.491878970557451,7.023392323634028,-2.081156651285663,-7.512118671841409,12.176872351356133,64.2607556361761
1776353235687,-6.4004492256164545,6.946925170025229,-1.9551610582675785,1.042669144494055,6.620615060614664,63.4679141075102
1776353235704,-6.121375679126381,7.157765722766518,-1.6358349963661283,4.982329301389991,3.254802424904047,66.28791480070088
1776353235720,-6.050897536799312,7.358431502974033,-1.4652482011452317,5.469391798650893,1.735477323401545,70.99772638439653
1776353235737,-6.123620535443723,7.547871540290116,-1.4827556546546519,7.352193207520146,0.674773758095159,75.16610204239609
1776353235754,-6.511630841992795,7.681497335925698,-1.5661035807531327,9.628515111646037,-0.5988468139603585,74.61042517228054
1776353235771,-6.757933753259479,7.7801085168033834,-1.55263626947999,10.745207498487162,-1.4873949276280443,71.53589064948017
1776353235787,-7.12484544993937,8.158242741504312,-1.4668935571994632,10.489725980130128,-1.9002465657831111,66.92508948799302
1776353235804,-7.433847101703286,8.636335470038652,-1.4457948742650448,9.841133777866656,-2.996462472379362,64.08006298168341
1776353235820,-7.678654221454262,8.946234947425127,-1.454773568882048,9.293695823437426,-4.303522049785675,59.87209954725445
1776353235837,-8.097938787189126,9.396642381176353,-1.5034056439734995,6.892668325445443,-6.00138754914037,51.40249422170939
1776353235854,-8.415021454077959,9.848848973304033,-1.5592201779149473,3.641616101282556,-5.306487091191035,42.4218268217073
1776353235871,-8.390779870007933,10.077046319037676,-1.6021667547158895,-1.3815970049318393,-1.7755682926736984,34.08430369433194
1776353235887,-7.886650782941281,10.568306572180985,-1.8513130727149545,-4.88978450700455,3.8073920495147586,32.34090473887536
1776353235904,-7.145944936591387,10.516083048468827,-2.1630083474770188,-2.1042871547364292,7.983887521777006,37.645161346415556
1776353235920,-6.988975090247393,10.365547619086504,-2.176026672873646,4.013247120909773,9.765345145062549,45.42187471651409
1776353235937,-7.047033895984292,9.75487597362101,-1.839192280679941,9.88541816312408,4.432462787823999,53.117616194002125
1776353235954,-7.8028537248358125,9.290700711280106,-1.6487039033547042,13.7346771378169,-4.111513052498746,55.06317508851274
1776353235971,-8.202086559405922,9.05202814876139,-1.699580104111135,18.756524206197295,-12.16634361475056,52.43106948429454
1776353235987,-9.064149086926877,8.312968608313799,-1.6335897747226058,22.1343720621123,-21.585472447200683,35.15195446915873
1776353236003,-9.73886504227966,7.64723207823038,-1.4543242176793514,19.2954483298261,-22.76512466403734,12.931227471596314
1776353236020,-9.819519418445228,7.267899583655596,-1.3376070328772067,10.538826502526057,-22.747513021262463,-14.984545406868582
1776353236037,-9.852439691272377,6.923583457404375,-1.6044111726418138,-0.07777280275799645,-16.65149917758709,-57.39056887838376
1776353236054,-9.245510154944657,7.183654781782627,-2.2955869721472264,-0.9703508881185484,-9.14663331287059,-85.0759756978434
1776353236071,-8.72716491099894,7.554007266566157,-2.4329547307901085,-0.40456920669320673,-1.1288501235637487,-104.4185045216184
1776353236087,-7.79507227717936,8.379407704383134,-2.3669644014015794,1.6178972176653623,-0.4837571659502916,-119.38463061584275
1776353236104,-7.044790500971675,9.091085316908359,-2.5004408516943455,7.389507384729572,-5.076053157180906,-121.23733308858705
1776353236120,-6.909068317578733,9.1289424616158,-2.6815019138522445,19.32424099227229,-12.34512893891752,-118.78364227077333
1776353236137,-7.635858159039914,8.814703493720293,-2.669381852469593,33.74346017927538,-13.873266798718337,-125.62538812086174
1776353236154,-8.322994620026648,8.523809161055087,-1.701675468955189,30.746817133769834,-11.133811111315037,-139.2007306057206
1776353236171,-8.233661262843013,8.742579337751865,-1.4240978601112961,23.391181510908,-9.516908966834382,-153.44701623312812
1776353236187,-7.512108152991533,9.409064055854081,-1.6496012905858457,19.924575346728684,-12.793349004142206,-162.2303936189544
1776353236204,-6.4284332110852,10.20094742399454,-1.933464555570483,22.225334813931234,-17.228638209622122,-160.39457537383836
1776353236220,-5.8933279709964985,10.29192533351481,-1.9581544679298997,24.69792988782026,-27.223373550412255,-152.0106137902961
1776353236237,-4.850353872790932,10.09365550853312,-2.175876889139414,31.5362299074724,-43.83383182882403,-133.10152194106095
1776353236254,-4.361189715144038,9.545983047816156,-2.35394534535259,37.12865219609544,-55.99700879712064,-117.29900503202268
1776353236271,-4.339492262598872,9.203162713080644,-2.4158958978310228,42.05477245571081,-64.46307949977022,-103.96032177171561
1776353236287,-4.502296806445718,8.537125154224038,-2.443727761477977,45.834346425396575,-70.36212264061348,-92.30454248138632
1776353236303,-4.894496965900063,8.001572754889725,-2.176325801950693,44.7294301384582,-67.8780374809932,-88.5604445142496
1776353236320,-4.960937815535068,7.822756402918696,-2.014567698416859,39.172490682573375,-62.278498135255006,-86.02482557734157
1776353236337,-4.824169045698643,7.518992067286372,-1.7681139805026351,28.78261182282508,-52.40688378444352,-81.3744912809384
1776353236354,-4.542100993567705,7.301418406897783,-1.8361990902133285,22.07158213307237,-44.25776118003921,-75.97442077972126
1776353236371,-4.276044749560952,7.015011448779702,-2.0712800579808652,17.357260916977214,-36.06241185533226,-66.54710681932451
1776353236387,-4.237588469916582,6.804621562415361,-2.1972751395422963,16.666380452241256,-32.47662742787268,-60.27652187820008
1776353236404,-4.302530605426431,6.396708870044351,-2.3828254028782245,18.44535274044256,-29.100297581500712,-55.83561142703324
1776353236421,-4.313603788104653,6.078579616712033,-2.3717520740695295,20.87510545276268,-25.442748356431807,-51.0399511956597
1776353236437,-4.346823920661211,5.932234040234983,-2.305612253207713,21.925694415042773,-21.49861805416751,-48.20946616209306
1776353236454,-4.308665162658691,5.672911780658364,-2.012173423691466,20.907246615449466,-18.04939984406775,-46.54915645788967
1776353236470,-4.172496112281084,5.539136055158078,-1.8535574906408785,20.016827296753462,-15.698076486439597,-44.37917803781995
1776353236487,-4.112490848651528,5.595399501910805,-1.7922057808384297,19.67973526309853,-14.414509771570366,-41.774277077065896
1776353236504,-3.9841017846256492,5.717803354047239,-1.717387344284728,20.381395473892063,-15.241281972485606,-37.14121291397909
1776353236520,-3.7942122499763964,5.9169710046514865,-1.727861757352203,24.446570388627325,-17.22984544555792,-26.83777009817731
1776353236537,-3.6471190700024363,6.001367489954829,-1.6476560748022049,27.34526339879301,-19.70703552921107,-15.291919287444788
1776353236554,-3.610606325641274,6.020819501660764,-1.4471414665684104,30.14575707171413,-22.192339877598194,-4.201908044842926
1776353236570,-3.999664095416665,6.046557461768389,-1.1890172576699405,32.82479632081408,-24.830683152075917,7.530140979740134
1776353236587,-4.226066958948969,6.117486270472407,-1.0553907313819975,32.42043546157098,-26.506799621566,13.260236830142182
1776353236604,-4.692036703491211,6.637027153943479,-0.7236436523899435,28.978146478384204,-24.931995348034718,17.83107967743746
1776353236620,-4.922628835406899,7.1930804895147675,-0.528516144021973,20.71113822400006,-20.454150648931037,25.963970337279235
1776353236637,-4.9835319246590135,7.420081026679277,-0.4891618926245719,12.9357405190904,-15.00792855949212,34.699065115862695
1776353236654,-5.069872822028398,7.6768591547310345,-0.687880776548013,6.917446117320133,-11.49190597666776,45.638746883040334
1776353236671,-5.484966365814208,7.7314762955814595,-1.1543008221410214,4.868581465386715,-10.038518560917208,55.21576151457083
1776353236687,-5.9023068117439745,8.059332869940995,-1.3500273193154484,6.496258660169889,-9.768210409419368,57.10789125429903
1776353236704,-6.580014934650063,9.374797044593095,-1.1429280719943344,5.480265459809553,-4.79583738940514,60.60336009036353
1776353236720,-6.530035974994301,9.694572603827714,-0.8969244359351694,-1.2521241524684892,2.7815834404302917,68.72988501389885
1776353236737,-6.605005583521724,9.705347095820308,-0.7282825642369687,-13.765136366420572,17.5259734196657,81.8504598434399
1776353236754,-6.77379563151896,8.977508622089028,-1.079332090396434,-21.117141743738543,29.524172291202532,88.18242769463524
1776353236770,-6.754043467822671,7.803003070178628,-1.5485954696565865,-25.28819654344005,44.866010016196356,90.9668567626285
1776353236787,-6.768706783947348,7.2728370400577775,-1.684916057334095,-24.43057750068574,52.27234613326719,87.98211190665711
1776353236804,-6.711546388354897,6.604855361396074,-1.8460754643224178,-18.638466093940917,55.82876074729572,82.68424152599087
1776353236821,-6.586449351611733,6.736985950037837,-1.4855987691260872,-10.454932996498083,51.34456738735851,77.96143209230468
1776353236837,-6.5502382205456495,7.089383091413974,-1.2017367462504653,-6.966655922742783,45.01557066845213,78.92901035050703
1776353236854,-6.6633630799442525,7.7904346805065865,-0.7094285184241831,-5.300304489331704,36.86394138462242,82.09250808724681
1776353236871,-6.90772128688395,8.149714567133783,-0.41987975514903664,-7.692493722537691,25.752324973015345,85.65962219261016
1776353236887,-7.166893616595864,8.151210358649491,-0.37169659286886453,-12.93532814641926,21.92037028258475,84.28865296202686
1776353236904,-7.645584311023354,7.982867469897866,-0.5511117875158786,-19.523026817876342,21.13486096199285,79.01465409250982
1776353236920,-8.034193167987466,7.916429542872309,-0.8515839497350156,-28.18093533619678,27.1678782634059,67.04010304342687
1776353236937,-8.053047506061196,7.879169195014238,-0.9904473537631332,-35.06279317973338,38.75283702977862,57.35716242315323
1776353236954,-7.755119036975502,7.839964142829179,-1.110008822080493,-44.45254792988422,53.56927269815297,49.519397407158536
1776353236971,-7.066786059680581,7.7901342362552874,-1.3675344074986875,-55.7261542304892,75.08834716888467,46.275860098629956
1776353236986,-6.724415222278237,7.6017410776436325,-1.6361344907693565,-58.11868070428546,83.46605229914721,47.248106791130006
1776353237004,-6.41646103374064,7.204602292743325,-1.9999030671179294,-54.72927787584209,86.1252430185191,47.59809251439063
1776353237020,-6.206519475665688,6.840234727588295,-2.1250002499915657,-48.689314272043134,82.43934509330006,47.59533311796594
1776353237037,-6.159683490210771,6.781728178083896,-2.097017871958017,-42.09826710034545,74.511373768937,48.07010298226812
1776353237054,-5.987150164031982,6.860585441699624,-1.8977007298804818,-33.31653579010915,60.42163607730617,52.24567082946371
1776353237071,-5.934179036822915,7.135470304328202,-1.6540904186986385,-27.140294544442803,47.62569330882665,58.407112762745925
1776353237087,-5.965004383197426,7.159561374011635,-1.5418619236178694,-20.103135274653035,33.542089127070476,64.95328217650204
1776353237104,-6.221034323230385,7.183054477801918,-1.461506384268403,-12.904486427222068,16.532005018057717,70.28014671019498
1776353237121,-6.420202266095578,7.097312130847573,-1.2057760117039085,-13.557543865655436,11.061679191037825,73.17611959752371
1776353237137,-6.579416676495969,7.105093286243081,-1.1487642308019101,-18.168670314901807,12.40813231136901,74.3879249298782
1776353237154,-6.6109902108892795,7.109882274085283,-1.4848502888463437,-21.431702690868896,17.771556286368096,78.63144632912625
1776353237171,-6.742072459521889,7.216573885565996,-1.9357083889745175,-19.41371305530487,21.343868165689823,81.42202256737251
1776353237187,-6.778733380182087,7.214328736987709,-2.067090351206064,-14.533904893356773,23.520789473050872,83.6953280892062
1776353237204,-7.1226008858829735,7.225701779395341,-2.158069868161529,-5.570311258732416,21.639210668043052,84.30288707625716
1776353237221,-7.5724115227848285,7.328501644134521,-2.1836580445349214,2.332105339737854,15.486928018437823,81.4758034768972
1776353237237,-7.891588531604409,7.4051166817814105,-2.148941682071239,10.845240741523876,6.967321866186859,74.81856835704751
1776353237254,-8.554183841052652,7.727136805072426,-1.8376953201204538,17.749677482909252,0.9647719042271173,61.9838779254065
1776353237271,-9.068637922778725,7.955484957453608,-1.3628956417821347,14.567792876923791,-0.9707748934556181,50.66597443293941
1776353237287,-9.21273893519938,7.9939406525760885,-1.250218818411976,7.818691712737431,0.3551516407898273,37.59378466347872
1776353237303,-9.260323693194985,7.989601162067055,-1.4000056213840841,-0.2637403910023435,3.4589610480639594,23.567636033020698
1776353237320,-9.228601105719804,7.796868512946367,-1.9346606334872543,-6.145215965135206,4.888151238019271,0.03961659128995489
1776353237337,-9.282769626019894,7.887099403491616,-2.231392586264759,-4.650087128932592,4.400847549703303,-21.63233949773802
1776353237354,-9.427768171802162,8.963742547065019,-2.550569448953867,-0.2723965085169975,2.2400375913772557,-46.685760241289934
1776353237371,-8.735545201331377,10.390388045832514,-2.3214742775976656,1.6021303662966224,5.164140399359268,-52.08895896914694
1776353237387,-8.216301839502155,10.394576729694009,-2.2574287986665964,3.240374077169218,5.067576038647275,-48.751632918030325
1776353237404,-7.578846524268388,9.752782800734042,-2.2203194035865366,4.238577622949432,-5.072463465885241,-47.66207089634614
1776353237420,-7.239018941608071,8.888623885455727,-2.7172657395422455,10.44367257587767,-17.027285940437437,-49.750688103022675
1776353237437,-7.0488301317512985,8.47158446829915,-3.020581308493763,23.30982029751481,-28.07202626233363,-53.38601530762694
1776353237454,-6.764518976868689,8.014592395460605,-3.070111501468718,40.98078326533425,-40.09206637128887,-59.534940919255114
1776353237471,-6.528989096289873,8.098986834937334,-2.37594236536622,48.34144249233063,-47.4886114121845,-62.290560249329246
1776353237487,-6.437260660663247,8.175302012854814,-2.054222101804614,52.01387469960099,-55.31392499332225,-63.517118790290965
1776353237504,-6.363788889478147,8.54849819663167,-1.521062588956207,52.865107515481334,-68.82975603994278,-63.2519640165219
1776353237520,-6.111349959674477,8.913913225013017,-1.2942119816564022,52.42423929512452,-80.76495836921728,-60.40388441565331
1776353237537,-6.001216683307289,8.997411592432856,-1.2373496922276914,51.155709241713076,-92.23274353283115,-56.261682042553225
1776353237554,-5.987749298968911,9.0140207819283,-1.0969900582924486,46.669603428808266,-109.43100276857234,-52.25904775495318
1776353237571,-6.164920806342363,8.866778548872471,-1.1406840924598276,40.0517443495237,-111.71102919654932,-49.87328999862441
1776353237587,-6.354211790576577,8.959403056555987,-1.2973543713353572,32.64887455345664,-113.53270895008342,-50.88944797729847
1776353237604,-6.515820402637123,8.47128577761352,-1.8124072957374155,25.89838515332148,-110.27051497983695,-55.9799572298577
1776353237620,-6.7363862305790185,8.210916347071528,-2.0834005577549335,19.320798576930603,-103.92212052368772,-62.2993848537369
1776353237637,-6.775441645160317,8.072202872908115,-2.2297461342319846,12.084869703236063,-94.11569691340944,-70.47625510164438
1776353237654,-6.844125889807939,7.764847234785556,-2.6041403686869886,5.171046574383797,-76.45939836173801,-84.69890827452367
1776353237671,-6.668899671283364,7.856424863764643,-2.8633119677465406,1.1316791025406032,-59.93019030614541,-94.11054695077524
1776353237687,-6.525846122089028,7.944262721693515,-2.8796224665563552,-2.6722863264449246,-41.04041081678846,-100.92363332710627
1776353237704,-5.9491422126770015,8.174254549628495,-2.8778268883764744,-6.6007716535284855,-23.811041776925148,-104.23602235756317
1776353237720,-5.511601274761557,8.270171669116616,-3.0385373094882815,-4.932475323751245,-17.602124906269466,-104.74243307319543
1776353237737,-5.3200663109928366,8.347236204096674,-3.0520052052833138,-0.25406193290715606,-16.082103872523565,-103.15184594003954
1776353237754,-5.071816941833496,8.477419750323891,-3.0029239251196382,7.38545110613623,-20.849630554705822,-97.80108940462989
1776353237771,-4.961235337176919,8.472781569129229,-2.938280188034475,13.519484344052833,-26.225517063619243,-93.37830286042568
1776353237787,-4.975301271930337,8.515428870722651,-2.7922343982215967,17.505732154060368,-29.730259589029327,-89.31975664427992
1776353237804,-4.949563604083657,8.346637069159746,-2.5763068976048378,19.792452167423956,-31.443363240422322,-83.95129625854159
1776353237820,-4.859032269287109,8.009353325763344,-2.394347571432963,18.992365515595957,-29.34051533461006,-80.69546802460158
1776353237837,-4.652983042475581,7.6412465740799895,-2.3108497154697774,17.733527500616756,-21.534947830362807,-75.82871235415737
1776353237854,-4.588787341418862,7.448961084204912,-2.308605809000507,16.969027841911814,-15.425418749867273,-72.43074788358939
1776353237871,-4.584747126117349,7.332692666083574,-2.1977244176797566,16.58424571992456,-9.182483268276693,-69.29796550754715
1776353237887,-4.352807671245932,7.439832605853677,-2.028034790494293,16.45252893687545,-1.3044986833543815,-63.85981670170719
1776353237904,-4.212599574610591,7.525426484248042,-1.8661269032262264,14.849300831113158,4.678678300798265,-57.96453699509661
1776353237920,-3.8241403552502393,7.62553433342427,-1.6600759228490292,12.779441031444767,7.995615810355564,-49.26383904917334
1776353237937,-3.5841204697757956,7.611767089356482,-1.5649064799230545,10.133616992278588,9.504858805591187,-35.406525864808856
1776353237954,-3.506909219801426,7.582588341145217,-1.5598188744604586,9.210594619353174,9.24836898055793,-23.90977045383039
1776353237971,-3.462614735522866,7.682695021277666,-1.675937728043273,10.646904000857754,9.25787575010894,-10.35480839968122
1776353237987,-3.7488714715152978,7.706038487464189,-1.703470754874125,14.768907797034817,9.961424508207982,8.191271701772457
1776353238004,-3.9996635108947753,7.719954784613847,-1.578523794126138,15.994134451108383,10.460464595952146,18.171077956584234
1776353238021,-4.375104843249916,8.006511088074744,-1.2214882523596287,13.923928019339614,10.179456953119482,27.53317044059652
1776353238037,-4.727501984626055,8.224533076752722,-1.1469685064915567,7.75350438729883,7.444738001905587,37.47190676792901
1776353238054,-5.08124469539225,8.364743511475622,-1.2777520644385367,3.660645862083858,3.0233956158240147,39.4831174407418
1776353238071,-6.137238434168696,8.99217456856221,-1.6730946135718374,2.5246899939057688,1.842411085212382,35.016566459430734
1776353238087,-5.832724156951904,9.520842761340736,-1.2859824979715049,-5.935629476019249,6.472542535824312,37.20880788110012
1776353238103,-5.418977936121821,9.263467251917719,-1.1991922493994236,-8.927600245245682,9.395012288264457,45.664394243373735
1776353238120,-5.334880433765053,8.724771293860673,-0.9617173722326755,-5.4161338254845415,15.044439335700423,58.88527381597101
1776353238137,-6.080823888507485,7.355886494666337,0.5292715654991567,-16.006059961399227,23.255149755850738,64.47825618010599
1776353238154,-6.5759729657828805,6.978500457984208,1.0338498576380313,-33.85877426303271,36.704678448650654,57.17938967453072
1776353238170,-6.788758222851157,6.982989586097002,1.0905622172020375,-52.11130734811122,53.20689018154877,50.58542601205745
1776353238187,-6.251410756793618,7.67311821463704,0.4121054678857326,-66.0679758792373,66.23974147648477,50.7065423415147
1776353238204,-5.939117662268877,8.045865485602617,0.08200491399168967,-68.53525877349934,68.65729376339995,58.22584637236296
1776353238220,-5.61170883167684,8.544457396808266,-0.2678476574681699,-69.79241656194272,68.20115324005899,68.47895752417092
1776353238236,-5.581783649012446,8.766520769831537,-0.7408524152137339,-70.49667053707356,65.30617756034908,84.58802698353769
1776353238254,-5.690867708587646,8.801685022193192,-0.9775785198397934,-69.85108788691312,64.15699140230527,96.20675932780884
1776353238271,-5.8922799232482905,8.728212374225258,-1.4056922887183725,-68.37931872455877,64.85546020720912,107.04388580459873
1776353238287,-5.934778171759843,8.725818757086993,-1.7534502259865403,-63.82496907656178,62.13822654027045,124.03299781776497
1776353238304,-5.901109710913897,8.811112191230059,-1.8267723595678804,-59.230362293596734,56.37621406965058,139.50313040103373
1776353238320,-6.2614370607674115,8.745123177015781,-2.0359660218849776,-53.666753157987394,46.21906024549213,151.06848481694124
1776353238338,-7.125593637958168,8.719533977729082,-2.5044809208653867,-41.02316117403959,30.856281160503045,157.20728125803026
1776353238354,-7.510161695098876,8.806922338324785,-2.611172386215627,-31.720655260346497,24.635320958793336,157.31976081328204
1776353238371,-7.873633188197016,8.786273518049716,-2.5567047368384896,-26.406535859644798,24.56951037859297,157.11708177985108
1776353238387,-8.287379701288044,8.353070901599526,-2.6357130262974646,-19.93899387606658,27.52802560060421,150.00491508014352
1776353238404,-8.492383510699868,8.055890620532631,-2.5881283413670957,-15.440011449029004,32.69759429280634,138.00169089692486
1776353238421,-8.769662282727658,7.445369781714677,-2.2970832751195878,-12.557032142822582,41.09902408515092,114.57479091175226
1776353238437,-8.58441092927307,7.177220364820957,-1.956657726566121,-12.385871017316646,42.564034775321545,97.82640891588312
1776353238454,-8.461557872064411,7.125294362750649,-1.8472723459567875,-11.379308600652806,39.12974735874744,82.63595208855888
1776353238471,-8.30368961557597,7.1229001610904925,-1.6756379413791,-10.343244889416388,28.19847526198537,62.653058879149334
1776353238487,-8.04796011979431,7.144898057886958,-1.6258090577185154,-9.377042914331799,17.849171141001534,49.671836984149465
1776353238504,-7.904756056213379,7.145195579528808,-1.6365826729282735,-7.859979352496512,7.937387593907559,37.875475325228386
1776353238520,-7.599346291461586,7.209241642981767,-1.800735343448445,-4.3435392743591335,-1.3468092506633775,25.377772766857476
1776353238537,-7.3674080056339495,7.302914782935381,-1.9113174595616758,-1.7998566588056755,-4.945868470939994,18.13204171793032
1776353238554,-7.310395494079589,7.445219559589028,-1.9500733066745102,0.9412626065473451,-7.78858082378143,12.111533907982146
1776353238571,-7.367706988580524,7.524079161292314,-1.9663840246800333,6.794276462243647,-11.965859633364113,3.5137314812446454
1776353238587,-7.482029825592041,7.557447762408852,-1.7265151650488375,8.95957492207145,-15.853203742868926,-2.7382826024133493
1776353238604,-7.441029414422809,7.568670582690834,-1.6172794220432638,8.146065240977082,-18.339798997009183,-6.391604367272838
1776353238620,-7.472004982922971,7.706788429048657,-1.593038203299418,4.854275634170123,-19.926322167608916,-10.814380239306466
1776353238637,-7.698106817682087,7.812131548529863,-1.9957128488864748,5.068364925496411,-21.371740460145354,-15.855756526071218
1776353238654,-7.817816900689899,7.913286568671465,-2.225107368515432,8.17933594619786,-22.451776075484666,-21.772716960654705
1776353238671,-8.073847717505693,8.290973049604892,-2.4064685095984486,10.414943092681304,-19.204629011979733,-32.45476057724488
1776353238687,-8.010401081250608,8.69544290804565,-2.4396879845678803,9.4205127995307,-17.265680033038393,-37.46371737111417
1776353238704,-7.927800539453327,8.759486633411049,-2.549222418259084,10.278887431961943,-16.597030126503533,-42.0054619049979
1776353238720,-7.83682087636739,8.670154153010248,-2.8194681498449294,14.29174736652314,-21.836557031279522,-50.76203421342647
1776353238737,-7.630620550647378,8.633043442755937,-2.9771862572729586,18.075199176110182,-27.323210425510332,-57.855513515564866
1776353238754,-7.453299697931111,8.60521084845662,-3.0737022925022988,22.923516750889938,-34.01762738765428,-62.947453692755225
1776353238770,-7.071874322730302,8.455874273470044,-3.1269736447669563,30.596593953164575,-43.48203952052794,-67.40185035243825
1776353238787,-6.545597993524372,7.982868054419756,-3.1239807465612888,36.47945296076948,-50.60586535314871,-69.46841970847399
1776353238806,-6.303185075433552,7.8739318788826465,-3.089414167831838,41.862943177776415,-58.70837874665685,-70.45538204354084
1776353238820,-5.932981643731892,7.9949887003242965,-3.0789392433077096,50.28521870746788,-72.34203055646009,-68.73389433494165
1776353238837,-5.626523538970947,8.434923255378008,-3.127272335452586,58.60976447542021,-86.0027708965116,-63.535280263294034
1776353238854,-5.621735427911579,8.706216230994462,-3.0529028847754,65.92923424662682,-103.37090376710019,-58.99967265437955
1776353238871,-5.903204052844643,9.330805342653393,-2.9327443273477254,74.1485609504151,-123.50488759113959,-53.107490438557576
1776353238887,-6.348824252319336,9.965117391425371,-2.6339174481175838,72.44162154474805,-139.27874502642047,-51.831214950627334
1776353238904,-6.634481853374838,9.73647054835856,-2.538897715860605,64.17052200705106,-136.5166165260673,-51.15242733581688
1776353238921,-6.95844785003662,9.504084518763422,-3.090162794242054,57.88011585695526,-132.37328717175419,-55.61461041115373
1776353238937,-7.108684004211425,9.089887047034502,-3.453482823105529,52.992009015165586,-123.36128969402924,-61.60679001151927
1776353238954,-7.0661869247436515,8.821288132807611,-3.601624270023405,48.04557918805318,-111.76334161540244,-69.40147019422952
1776353238971,-6.928819604492187,8.29875478952229,-4.020759125089272,47.25928781080132,-93.16628012821015,-82.91338071226646
1776353238987,-6.689400022998452,8.310576160219311,-4.112038063382729,48.07722003938327,-76.11025958193447,-92.48512585285229
1776353239004,-6.477064263263344,8.39407335859537,-3.9299288073461502,46.363450444546196,-59.60957439631584,-98.90914416349189
1776353239020,-5.93776917026937,8.593239840155839,-3.4389681216713037,42.37991336586551,-45.1572731880678,-103.64230133377065
1776353239037,-5.676203223419189,8.718487099024653,-3.1595949346475303,39.99935338349512,-39.08743092174462,-106.64968826684061
1776353239054,-5.4496513068050145,8.702475290900468,-3.0916592433448877,38.626826869781056,-35.45999941582089,-107.96825628611158
1776353239070,-4.90272761862874,8.6114973813802,-2.906407889890298,35.596978859625494,-35.97716767939591,-105.59238181351182
1776353239087,-4.525789325714111,8.557177762171625,-2.937233601590991,34.987299098837234,-38.456874687758216,-102.22492096777711
1776353239104,-4.344577603039145,8.543260880500078,-2.9394782387126237,35.10618195643589,-40.55520100833993,-96.86624141293025
1776353239120,-4.118475768280029,8.538473646223544,-2.8341330003395675,34.13415724508386,-40.078733842029,-87.66094958169394
1776353239137,-3.8524189397513866,8.484902799555659,-2.4958026704996823,30.840325838601895,-35.40591797797273,-79.37281555220694
1776353239154,-3.6252708108097313,8.332572303450107,-2.4211332139626145,26.528955047686228,-30.727668698431703,-66.82408465054687
1776353239170,-3.360112392425537,8.025066443201899,-2.2997767519872636,19.842949463505153,-23.448707071645142,-48.359122436997204
1776353239187,-3.434033953204751,7.616855060145259,-2.3303031154152003,15.818031683737946,-19.770178920540545,-36.64331944424184
1776353239204,-3.6463685438960787,7.464972307807207,-2.4296627035073937,13.96526432419653,-19.109523750429183,-28.702695194441343
1776353239220,-4.025101903533935,7.33508745226562,-2.7141240074504167,16.911652545336413,-22.397334345157788,-21.834234766961718
1776353239237,-4.217834552654624,7.534104880744218,-2.8770794310100376,21.316159795774375,-26.040306238990592,-16.36391064748912
1776353239254,-4.240729690551758,7.653067360255122,-2.7801138984475284,23.811063975039954,-27.03468957459065,-10.034779886120273
1776353239271,-4.302079939049482,7.71860804618001,-2.685243657663837,26.01596515233596,-27.76095724941645,-0.8021756224969673
1776353239287,-4.476109641265869,7.796869389729201,-2.7266931643074375,28.741412121751562,-25.895296200269343,5.738839773200135
1776353239304,-4.646995200237631,7.778015051655471,-2.5803477704934776,34.27342821735501,-19.69370129240391,14.842470641943146
1776353239320,-4.7370776222229,7.664290765058994,-2.346314887006767,36.02809356984753,-14.85478547301668,21.740927552710176
1776353239338,-5.108778014484048,7.607877388441562,-1.740282189920917,34.80222146289739,-8.367465822923045,24.547023688297994
1776353239354,-5.7998038841247554,8.831464074385165,-1.1523558986183255,26.306961946829766,0.06671824830803659,25.701294922178885
1776353239371,-5.74578412464559,9.414601231715082,-1.037434365061298,19.303854585147096,7.091485740674405,34.36805707321095
1776353239387,-6.2018801254272455,9.948807477137446,-1.3808528848856687,18.45883894895875,11.27871101323592,45.16377211306306
1776353239404,-6.337300987786055,9.10335501589477,-1.5617645286355166,23.302844966824935,6.0236415861167405,54.26621154068273
1776353239420,-6.140678345489501,8.768017730391025,-1.3628967377606778,19.811750866923827,5.842260363178352,66.83327125498054
1776353239437,-5.685481923896074,7.5757058881551025,-1.6192257338054477,18.62208559276393,7.8202797317194594,80.9784427619152
1776353239454,-6.16671645758748,6.297650529921055,-2.6747693907268344,38.836701507502625,7.492931816689197,88.34329914015656
1776353239471,-6.386831619152426,6.107910048353672,-2.8579258177287876,64.34667941593487,10.308049778396958,90.71452225393153
1776353239487,-6.546046614074706,6.618922465193271,-1.377859986680001,81.79240323549479,1.5826777740970146,91.48953698886372
1776353239504,-6.008099428558349,7.365763745558262,0.05880991636514663,101.95638525036888,-43.6541978536527,94.54179826478068
1776353239520,-5.6495677299499505,7.6324179554581635,0.6581088116839527,107.37466503591328,-77.50881594657545,102.7622792705387
1776353239537,-5.736356371086836,8.402302842280267,2.548779496797174,83.55257030536376,-85.34460020771084,109.65959553971433
1776353239554,-6.615327655571699,8.313567743250728,2.5694294861160216,33.59631399889121,-61.08609737033252,107.34451658091685
1776353239570,-7.008875137981772,8.065169905531405,1.8004422787860035,6.326198048893972,-34.355578317597335,97.6022216167558
1776353239587,-7.219864159283041,7.418287128999829,0.3087047146439552,-9.990253882920959,-7.381427270941447,83.64622585926297
1776353239603,-7.115267474254965,7.132479890340567,-0.2853562800213694,-18.363655140232744,15.04314159975812,70.38893796329495
1776353239621,-6.610090339440107,6.902934637129307,-0.9557327448651194,-24.607885796444688,42.86231255147059,56.664099712977446
1776353239637,-6.114191905102134,7.075466794264316,-1.386838973557949,-26.937907501598865,57.41347733285998,51.748450133359704
1776353239654,-5.608565857475996,7.555953139936924,-1.6394272487044332,-23.27363224774479,62.337982252736644,52.0567375517374
1776353239671,-5.3182694907039405,7.840114949476718,-1.660376659361273,-16.289692104420467,52.42010703067667,58.46674031420014
1776353239687,-4.925770056042075,8.417716099989415,-1.5007130438886582,-8.38074114934861,31.937957728790455,70.54095748365192
1776353239704,-4.999990307506919,8.799592433828115,-1.487544642496854,5.567970211394394,-5.683787167829362,90.91297340026627
1776353239721,-5.236417136925459,8.849719277521967,-1.5221107828348874,18.577844749962466,-36.30228468388852,104.52717283131331
1776353239737,-5.936422431835532,8.774752007082105,-1.4294856906294822,31.00899052996619,-63.6813780096406,114.54440340013488
1776353239754,-6.6804205977290865,8.76412773721516,-1.1906640750288962,41.35897766986702,-88.79226113467983,122.28632720169595
1776353239771,-6.940938496831059,8.724322381049394,-1.1210827354110777,46.333810838642925,-96.6162974704428,125.44486622109831
1776353239787,-7.473498728612065,8.579174489924311,-0.9281997180342674,48.28813969604785,-97.53999176322782,126.04534913216915
1776353239804,-8.024315040312707,8.366838730189203,-0.7185574351668358,48.108871135997106,-91.9464493235809,121.48152601179335
1776353239820,-8.28169142651856,8.24129336515665,-0.637603637663275,46.116081483375844,-88.47718450826714,114.5896807241429
1776353239837,-8.738235755589605,8.087465323969722,-0.49305342017039655,42.930539311089845,-84.65094668617185,105.0131203001922
1776353239854,-8.960148321965336,7.935434687593578,-0.34610987780019636,36.6134681024743,-80.95895623221315,90.17523100763485
1776353239871,-8.99052417100668,7.902212801471352,-0.28251375007182356,29.36840299699122,-76.79252034793787,77.23384619096907
1776353239887,-9.000998803269862,7.680600094825029,-0.2633601367905736,17.82509472417724,-74.12999649625101,57.465496053578796
1776353239904,-8.853755985692143,7.5957573270589105,-0.5270221791371703,9.656944066518921,-72.44182645042315,42.1406211033887
1776353239921,-8.673891001451015,7.652169534632563,-0.703593967051804,1.230969349061667,-68.99072993830164,29.832545086944855
1776353239937,-8.037182997453213,8.411580373713374,-1.192010813462734,-14.068345539150364,-54.00878854105412,30.834472366483194
1776353239954,-7.040296988944709,8.9436916926831,-1.7295092322982846,-27.423696168579557,-35.38724082568733,31.497144149947
1776353239971,-6.671291534855961,8.953718581178784,-2.131735914922133,-34.51620387630852,-21.774359621150094,30.684037450013662
1776353239987,-6.191702430284023,8.440310793635248,-3.377917148381099,-24.858533248416645,-22.43621007436621,22.329208330828788
1776353240005,-6.390869934757799,8.062474675098061,-4.126404880778864,-7.553128835165458,-32.79930605483159,10.68373067331517
1776353240020,-6.4743680099166925,7.836073565131425,-4.12535770981349,8.442321281131798,-44.82420242828671,-3.829362633640574
1776353240038,-6.822873989073186,7.680600679346918,-3.563917201311141,15.870072602571565,-53.706795141996594,-28.08317313105909
1776353240054,-7.18619423713237,8.072501563593745,-2.879325091044977,8.94676490228309,-58.87469385294666,-50.63893029892074
1776353240071,-7.246947104258835,8.761582728907465,-2.911497029722854,-0.8495300177037532,-60.60105831661323,-69.81684814860385
1776353240087,-6.714386872477829,10.020334836256504,-3.5089999084703623,-10.425464145324062,-60.29308508693736,-80.62794477446683
1776353240104,-5.9938826871573925,10.440518981179594,-4.406676185686141,-11.559145773951949,-57.08737336603231,-82.81190459176757
1776353240121,-5.5897103503584855,10.427796277728676,-4.77418643278107,-8.470973070926357,-53.83322535862811,-80.05819771466105
1776353240138,-4.91364794883281,9.772534379908443,-5.609613174571842,7.943958235889111,-53.816429923459054,-74.25380733533584
1776353240154,-4.659862280595302,8.61134599021077,-6.002860285795852,26.375134064935665,-56.77454387185656,-71.94946543391362
1776353240171,-4.770294832170009,8.135498410254716,-5.93402698806636,44.485158668076444,-58.571378812284735,-74.0546526795166
1776353240187,-5.216365405760705,7.409459094899892,-5.3245535394094885,57.9799595622425,-52.785153321057166,-82.45526626425536
1776353240204,-6.0263531703904265,7.572862189161777,-4.488229045061394,60.36303305422746,-43.12336579664306,-94.20099231576455
1776353240221,-6.408228627446293,8.131009866663813,-4.0880980926077815,58.22994448586497,-32.63059696723769,-105.50130124092969
1776353240237,-6.521355240410566,9.60748585652709,-3.490744924529269,51.3981877874377,-22.256873212423766,-112.23126421506169
1776353240254,-6.37186727425456,10.348640907949209,-3.1361034382924435,43.99437542526518,-21.051930512637846,-112.84811225938387
1776353240270,-6.305577815788984,10.460119753706454,-3.019386253490299,34.80171261380423,-26.73283619441111,-111.95667011985965
1776353240287,-6.197689103478193,10.22668509184122,-3.315968568664044,26.700416701515643,-41.6554932572102,-113.58015144405833
1776353240304,-6.35346067994833,9.964818700739741,-4.096927003490552,27.3479988895556,-53.13643336516551,-118.36219227822687
1776353240321,-6.345979384282231,9.833287247034907,-4.481794847295433,32.88672564601858,-62.7578408112065,-123.37411678929053
1776353240337,-6.1168842129260295,9.772534379908443,-4.841374301391094,41.36222883991195,-66.07073527566197,-126.79287235569203
1776353240354,-5.732166518181562,9.636066054323315,-4.913050640526786,47.99211929741949,-60.17991568257942,-126.75717778708953
1776353240371,-5.460873542565107,9.574863689863681,-4.7807709988031535,51.61689044466151,-49.64895243533534,-124.49704086997563
1776353240387,-5.009867558398843,9.208552004903554,-4.477455649047345,55.13351920677471,-36.50125150950558,-119.6828366750055
1776353240404,-4.671984095543623,9.012675797060131,-4.2372872219476845,58.30142241552915,-29.569108105752047,-114.65946476689291
1776353240420,-4.54554207393229,8.8859333311975,-4.119821776061505,62.15529518300632,-24.62040553319332,-109.62110742374131
1776353240437,-4.294449005779624,8.631099907472729,-3.799747160815075,67.14792440966468,-24.22020938179664,-103.28732274222675
1776353240454,-3.9273879637569187,8.421756899812816,-3.4775770345941184,70.45827804374892,-27.32172315181856,-96.69056894747752
1776353240470,-3.682580844005942,8.310725797823071,-3.357418184905499,74.03184667787792,-32.598624851732865,-87.58892523689616
1776353240487,-3.324647695812583,8.119189665010571,-3.090165862981975,79.2485334300694,-40.90134133509783,-72.40385059863787
1776353240504,-3.165583507537842,7.889047030428052,-2.752433791296184,81.71022922959037,-45.72586594590385,-59.840359658181406
1776353240520,-3.17321502532959,7.837272127266227,-2.4527093787044287,80.114922435718,-48.26640261901428,-47.38314304611574
1776353240537,-3.1199428693473337,7.442228561079502,-1.9921246882013974,73.47922973251053,-52.11590406542264,-33.05005254454652
1776353240554,-3.1386469852954146,7.226900049269199,-1.7547998870298265,66.91050020392588,-53.36822266483906,-24.00190799818657
1776353240571,-3.1387983764648437,7.180363046760856,-1.662922617517039,59.073800697441705,-50.93616988631594,-16.84008582321302
1776353240587,-3.264792069786787,7.112128007185459,-1.69913477149643,50.78970330975419,-54.840473355529895,-4.48436454155328
1776353240604,-3.2076305051505565,7.132179446089268,-2.175431337329,51.99848628340095,-60.04523118233593,6.899622311794162
1776353240621,-3.2417490478515623,7.203407530000805,-2.296189175824076,56.23762611629644,-66.4873426640869,19.51445834556256
1776353240637,-3.5187282524108885,7.284211543770134,-2.3810336240906267,63.7265460506219,-73.96730139022131,34.428063700164095
1776353240654,-3.9261914474487303,7.2530869221881025,-2.1887491571288553,67.03881213767373,-77.54990636462225,42.374165761678945
1776353240671,-4.110843665966391,7.278525022566318,-2.0636524126466362,67.54014802275267,-77.54218825086014,48.0798564924029
1776353240687,-4.390516931915283,7.545478799934685,-1.9132665112702174,66.34381306886826,-71.95823539680791,53.85087798253801
1776353240704,-4.73109153355062,8.09764155780822,-1.7869726659579201,64.58099588560133,-67.19822192271266,59.13716436237191
1776353240721,-4.926219553375244,8.737641296827793,-1.8365028224002569,65.87266661992078,-60.82016395499807,71.97305007711766
1776353240737,-4.949114106750488,8.889972377455233,-1.9047373870516195,71.32950965351907,-56.08023465215725,85.25666152214693
1776353240754,-5.332786091834306,8.748415788820385,-1.5114900200992822,73.52826366056206,-50.691140264936315,94.64220204557986
1776353240771,-6.047453533825278,8.86049318499267,-0.9403230308199301,68.89337925206145,-40.884883994292686,98.09134512359876
1776353240787,-6.273107040295004,9.072081341230868,-0.6953666387913748,59.79223414528949,-27.409091516586777,100.67649659236771
1776353240803,-6.20636749997437,9.61511562075317,-0.21951902230270207,44.62465845168479,-5.720751297843825,108.01791176137758
1776353240821,-5.672911780658364,9.33903541086018,-0.17073687121607362,18.121383207730513,16.892565581700815,122.65215213364183
1776353240837,-5.511002724346518,9.051730627119541,-0.8352777983067556,14.04293894298521,23.349829838125455,135.5027705664273
1776353240854,-5.527013947948813,8.616584475386142,-1.9523220719819887,24.659974526602497,19.85987125717386,147.80563514853444
1776353240870,-5.854271387371421,8.52829828916788,-2.2071551669131964,44.51249991532401,10.930679577851565,156.5619513248691
1776353240887,-6.619367286351323,8.421605508643388,-2.019808740875497,72.42886958156764,5.621999142163311,161.52509462488055
1776353240904,-7.083693355339765,8.242639519068598,-0.5656310920599847,78.57772006111493,10.611653394551318,161.94648997591366
1776353240920,-7.48921126152873,8.100034882685542,0.6147109109189361,67.15066331552185,24.015115876494082,157.44641984125076
1776353240937,-7.639747275432944,8.060082811525463,1.0027211444027722,51.58169447986843,29.694452322305533,148.91260390731838
1776353240954,-8.107513255742191,7.870040716663002,0.9765345637448132,39.786937915402305,25.991649678890713,135.02807241911142
1776353240971,-8.383445289336144,7.854030662104487,0.6594524813778698,33.9082692288532,5.030477439283527,110.2012841824097
1776353240987,-8.400204700957238,7.873782241278886,0.5367490617729723,33.548581221876574,-19.65936080880438,89.94228057580239
1776353241004,-8.253859124480188,8.103326909968256,0.5401910189203918,30.919262334839733,-43.34083218962709,69.91651426897268
1776353241020,-7.9584750791803,8.78432822920084,0.37424306248128414,25.3076147712504,-68.15693459537233,50.29506442515645
1776353241037,-7.798362258635461,9.086146691462398,0.1313810854487121,21.706887597434125,-82.83887700879995,41.609549989758115
1776353241054,-7.533054787169396,9.347713222834468,-0.5892737603887915,22.039690272290287,-90.26834014640046,35.434474998892554
1776353241071,-7.014710127745568,8.91196793616414,-0.9645645783573389,25.356558199295417,-88.07202451689116,28.416344636130436
1776353241086,-6.762271782463789,8.57333862337768,-0.9938941332161426,25.9081062200577,-78.35145638447992,23.203855035183942
1776353241104,-6.384586178313195,8.009353910285235,-0.9802769651435315,24.52134217701875,-66.65976395949471,18.851940241355077
1776353241120,-6.1164358846366405,7.769934328791499,-0.8942351968511939,21.26869851877925,-47.271093792781684,14.562975886011639
1776353241137,-5.959465453770757,7.737012886920571,-0.8444058747991919,17.33639468906283,-35.759404173182986,14.955407819869308
1776353241153,-5.731717313109338,7.797617285487055,-0.8101393019296228,14.621524267576989,-30.20044639639842,17.13795208046457
1776353241171,-5.767780267876386,7.783252075526118,-0.8891478105843067,13.513528419096582,-32.856420096671236,21.04689837076684
1776353241186,-5.8252405231982465,7.754968814849853,-0.9386775651678443,14.352469455791846,-40.798973874912264,23.975717637814157
1776353241203,-5.989243921440839,7.589471378657222,-1.0627274309456347,15.306479543207962,-49.22510846148478,24.956507189418602
1776353241220,-6.21833967731893,7.331796009504795,-1.1574480341255664,13.840187338794319,-60.2727584439674,23.5027441132637
1776353241237,-6.344632938109338,7.210737434497475,-1.3108265779793262,12.778020352097405,-66.37566224096803,20.126255464993527
1776353241253,-6.556819644762575,7.121853866907954,-1.5875067995920777,11.596982460632882,-69.55312771456049,15.342643687315887
1776353241271,-6.44833150525391,7.168539045715332,-1.8493724600411952,10.889891395675543,-70.6705398325854,10.966211929461265
1776353241286,-6.38159401075989,7.247698507148027,-1.8929168566048145,10.041945608333261,-68.07932315583348,8.87525452922035
1776353241303,-6.0981800969779485,7.231985974231362,-2.194585973523557,11.47363180554339,-68.51847016851944,9.041101767552014
1776353241320,-6.037726505059004,7.25847241461873,-2.361432047846168,17.12846324016013,-71.40836418748685,9.289601125030003
1776353241337,-6.044011576677859,7.256527710291743,-2.3421292353525756,20.874989339546786,-75.03600742927486,8.583425305421446
1776353241353,-6.120326754595339,7.493553090125322,-2.0754748062569646,20.86222883862991,-75.20372272434453,6.938970604715782
1776353241370,-6.252457050976157,7.907451286646723,-1.9312244484934955,15.437260590340781,-76.40868420715067,5.9088803207953635
1776353241387,-6.414214716118574,8.182034535980224,-2.0467446055307983,10.851698685384124,-76.0616013142873,5.6743721789453225
1776353241404,-6.689848351287841,8.691104586580396,-2.43759795348607,3.2147832793398843,-71.9341384894161,6.143327417829697
1776353241420,-7.172130348205566,8.863187246382235,-2.8178275430310515,-6.955535521000356,-61.561915668672285,4.903108071641129
1776353241437,-7.344662505340576,8.84208775973022,-3.0201372179880734,-18.585967552432905,-49.161567211636154,1.9305279960249513
1776353241453,-7.537096463775634,8.565558052504063,-4.084060653785244,-20.446494006871454,-41.336765894686145,-1.0815136042426812
1776353241470,-7.722946367645263,8.182785062086582,-5.197214422827959,-5.216545025766191,-40.92344041215741,-6.461735469010059
1776353241487,-8.035688374981284,8.173356724005938,-5.485566304468736,12.054552201057668,-45.155691999274936,-17.561263299559865
1776353241503,-8.625409879137575,8.770560400611162,-5.459829001948237,27.610232049907193,-49.29077731525987,-32.31307854819672
1776353241520,-8.058882788085937,9.112633131849766,-5.182849651258438,45.37663154345193,-50.732756607549206,-39.69261641805902
1776353241537,-7.800308424267173,8.885331858173013,-4.862026555732265,52.47764454424485,-51.52536590978333,-43.31981228245638
1776353241553,-7.712770133806765,8.019528098297119,-4.453066984656825,57.46024363810706,-56.253328721198294,-57.20619816702302
1776353241571,-7.742996929766237,8.049455034527183,-4.5046920310191805,63.30974058671104,-56.82286746023439,-69.79596826031111
1776353241587,-7.557147318157553,8.21719995738566,-4.380941878840327,69.43424144186724,-57.93959314424772,-79.38437223228262
1776353241603,-7.058705629077553,8.563612763655184,-4.018668874811754,76.4967321757413,-62.711422845607096,-88.63452474598756
1776353241620,-6.580014934650063,8.857350795313716,-3.609260610120743,79.18618746332552,-69.76239105035134,-92.93263301708235
1776353241637,-6.354360843658447,9.083302407947182,-3.4234108523815867,79.6401833072671,-78.04243130567187,-94.9862181835059
1776353241653,-5.889736668506265,9.567830137965082,-3.129821727674454,77.78539762682594,-88.81006060765688,-93.74914115122236
1776353241670,-5.487959117889404,9.726893741717934,-2.9833263674631714,74.69365102731715,-97.32973805000731,-88.19979686569458
1776353241687,-5.455338120269775,9.641749945178628,-2.959235005518794,70.89763679229915,-102.80464693396029,-84.07777770159188
1776353241704,-5.784391795459389,9.348609879413246,-3.1314677413158116,66.41530465891078,-104.53328585062047,-84.00267294147844
1776353241720,-6.230311270141601,9.343222341156006,-3.281254982679337,64.05887573487804,-101.29553712741347,-88.1113049348079
1776353241737,-6.2780462502628565,9.362077263751626,-3.2463892018076033,60.01829291624941,-95.80184522324296,-92.04444887779223
1776353241754,-6.183176009479165,9.357737188720703,-3.1323656400036066,52.287041285266476,-83.77443534017328,-95.27376231737426
1776353241771,-5.876719366022944,9.0523280084908,-3.0867260247264054,45.3598736743233,-73.44379471109652,-96.45332232665713
1776353241787,-5.792323172980547,8.876652877154946,-3.152417078907415,39.258844764249844,-63.15490019822685,-98.4204851095125
1776353241804,-5.5936044351875776,8.626308581542968,-3.3165696763623504,33.15490960868455,-45.18097052939316,-101.5387874845143
1776353241820,-5.148581617084146,8.375066460308432,-3.4774299542736262,31.20952146890318,-34.32888935341551,-101.81140082485703
1776353241837,-4.919785136413574,8.316109244427084,-3.5375841248545794,33.39433505985018,-26.289169304041884,-99.4679970715715
1776353241854,-4.4087727195739745,8.215253499493002,-3.504514214423671,39.664219906584684,-21.68541860532548,-91.75583923441334
1776353241870,-4.118625990405678,8.050951995086669,-3.23860833867304,44.027648691806895,-20.79677513581368,-85.06284124406947
1776353241887,-4.015824956622719,7.950095665630697,-3.084481533735245,47.635539026515225,-20.843633648614553,-78.01683858685183
1776353241903,-3.894768719702959,7.749282293646037,-2.697518763477728,49.909104095537366,-21.82488936062985,-68.16765116218008
1776353241920,-3.7270249658882615,7.641692564281821,-2.342578294294327,49.876418225264274,-22.68127384669168,-57.94789182408929
1776353241937,-3.6332021883308885,7.593210272924601,-2.228554147968441,47.83309541806867,-21.0341071339987,-46.68766927916295
1776353241954,-3.601628069415688,7.464820624376833,-1.9316733613047747,41.35067899002546,-16.947340283749732,-32.54224164013441
1776353241971,-3.732262282019853,7.272087975256144,-1.9909297793284058,38.61169117058031,-14.587515048152202,-23.089288857140733
1776353241987,-3.8545162042915817,7.214477497808635,-2.077719662574306,39.227026328001344,-12.329119829276657,-14.809006130104668
1776353242004,-3.965696359363198,7.081000755254924,-1.8800482418771831,38.405897570887824,-6.988766525746583,-6.075892533267338
1776353242020,-4.02839509986043,7.020696508678793,-1.6672636423960328,36.70112675028225,-6.663433516521475,0.9901629190232282
1776353242038,-4.13029830802083,7.14684130090922,-1.6095037465404718,36.669557615938444,-6.74096854331899,8.38562473460517
1776353242054,-4.228609044647216,7.31997142393738,-1.3804081367928533,34.32888252322634,-8.426227647899957,18.58784756200195
1776353242070,-4.3918642548710105,7.4535978040948505,-1.1162977661568672,30.28571447799686,-9.637804168917254,24.59586807860005
1776353242087,-4.498855726081133,7.605031351360679,-1.0785890900094062,25.31436812079225,-11.144541338501128,30.36311076657686
1776353242104,-4.630536232867836,8.07309806818217,-1.0633262005563824,18.960543664252867,-9.555692488489006,39.481867516123685
1776353242121,-4.759075519019365,8.581715991100669,-1.413927325361222,19.097400164652413,-9.577314306080329,50.73468955108432
1776353242137,-4.956895846667885,8.760233652386068,-1.4649538943737745,21.708308276781487,-9.03692766819549,61.2579995713634
1776353242154,-5.4734466084122655,9.303568668420612,-1.0842756112132221,18.29882639972557,-0.7324216752679773,72.26264326773703
1776353242170,-5.245547368842363,9.204656751030683,-0.4420311620067805,6.853102747130851,7.518283771340991,80.79404131470321
1776353242187,-5.1626493054032325,9.169792358398437,-0.5134079336740076,-6.6549896951600465,12.154748514860817,91.61166077122354
1776353242204,-5.342811226764321,9.459639812359214,-0.7387623110666871,-8.631633634357042,10.560323669165026,101.76266742512898
1776353242221,-5.72663226493001,9.890447058105469,-1.1107616862744092,-3.0902821642620686,7.643911440745036,115.03296683146588
1776353242237,-6.742223266169429,9.476548861584067,-0.4912618605785072,1.824103190028986,3.1055128457809626,124.86953206655146
1776353242254,-7.683143934088945,8.824427599877119,0.2886496955435723,-9.099912257626762,8.756843808448071,120.17474689902983
1776353242271,-9.299977658191322,7.203404022869467,2.0154672776050866,-34.5011535544724,21.17588478569524,103.13311756133537
1776353242287,-9.121011668616532,6.494720915985107,2.1742327751941977,-75.7673431044648,41.405122427899634,81.72617772130235
1776353242304,-8.61179548754394,6.510283226776123,1.475125963493809,-95.8409685468088,49.706558250795226,74.38090349541143
1776353242321,-8.063821998053788,6.9820911759525535,-0.40851241182982917,-97.87501254201693,50.99308585266966,68.41106544382099
1776353242337,-7.632565839496254,7.610867217907309,-1.537677623670548,-85.5141596538564,48.2576292410254,66.10660059899371
1776353242354,-7.398982709071039,7.873033468738198,-1.8209415345225481,-73.25246062187693,44.86131426114198,68.56563262473838
1776353242371,-7.1237991557568305,8.186375195533037,-2.0825079197641463,-62.24821990666434,41.54376502276713,72.68677752462732
1776353242387,-7.183054477801918,8.51034002315104,-2.1939883729565888,-48.39309579792885,37.057826549496994,80.38991268189189
1776353242404,-7.312192314368486,8.6321444480896,-2.237682114863023,-36.92701135141832,31.710167504875944,85.65130985239026
1776353242421,-7.498491131049394,8.529942549243568,-2.163162953516841,-24.72092713475569,23.74367391359402,91.25302802847368
1776353242437,-7.6674319856941695,7.98062290584147,-1.9958677471872417,-8.851289956743715,14.16738498966284,95.69593630997275
1776353242454,-7.742699115863442,7.6378031556278465,-1.8447340596508233,-1.2035941643116677,9.172661456250216,95.47148946365697
1776353242471,-7.888745417132974,7.0003469636112445,-1.560122971973568,3.2341957441781184,8.098534808316609,91.12774186852815
1776353242487,-7.851037033246457,6.509535623279214,-1.30259687509872,4.20503328327503,8.01021021706459,79.90468921306501
1776353242504,-7.779809826117754,6.418706766840815,-1.255909869660437,3.7743894292189033,7.369681053116317,71.31265957683664
1776353242521,-7.444471663831174,6.42259617549479,-1.1821385310068726,4.300313995309885,5.435858984920715,64.75833491721153
1776353242537,-7.261166183747351,6.479609271571039,-1.1357508738413453,5.1353037675702975,-0.7501161340865417,58.27632147032935
1776353242554,-7.262063132587075,6.500107869720458,-1.0811335137952118,4.463319874946825,-5.7869640054315745,52.83662562664238
1776353242571,-7.222409459851682,6.439355002593993,-1.110312846528366,2.6600030849963026,-9.995571185189814,46.503650322544466
1776353242587,-7.395240892194211,6.558168429023027,-1.2491760313607752,-0.5469609617652393,-13.426094313757602,35.54584123330961
1776353242604,-7.396737268231809,6.688502781897783,-1.3944747291333972,-1.192773864005898,-15.434560958071334,28.472796149620592
1776353242621,-7.270442838397622,6.959645535388589,-1.7426813600171356,-0.15186504068785514,-15.512075067414516,23.921984539613668
1776353242637,-6.967277345441281,7.0292270211368795,-2.0560223561596125,3.8372783960017953,-15.207735498377088,22.420077167546637
1776353242654,-6.847267987225949,6.9822413980782025,-2.1477503533948212,8.801242599374092,-15.078376838138924,22.1958232740749
1776353242670,-6.766762956403196,6.77334730322957,-2.2647667403392493,14.977199538416233,-17.845631395464174,21.681048991803966
1776353242687,-6.917747006335854,6.619369624438882,-2.2287040047679096,25.119258644508957,-22.59011984957598,19.86661777652654
1776353242704,-7.010372975324094,6.541707708087563,-2.1556806349374353,32.0988906460143,-28.580262346021573,16.874217986042865
1776353242721,-7.345411570142209,6.707506173053384,-1.8798986773386597,37.62076049560569,-35.09996306919659,11.87167303225693
1776353242737,-7.678355238507687,7.213879824176431,-1.4618113585643469,40.247931288148564,-41.06332951654844,3.2345568904304827
1776353242754,-7.83966428309977,7.491606632232665,-1.3305788878060876,39.31504014564612,-47.053156116744915,-3.0350099256207983
1776353242771,-8.162732454138993,8.140286229053139,-1.2592017508126794,37.45189431366088,-51.36060125643512,-9.438006621542394
1776353242787,-8.478766781018674,8.608650759777426,-1.323845122571662,32.231187995142854,-50.73384602272182,-18.045096824890642
1776353242804,-8.563910869818926,8.659978795954585,-1.4173690633129328,26.251352254154813,-45.37602024152121,-25.610014566563542
1776353242821,-8.738537661145626,8.636633576202392,-1.791762201789394,18.956699975297443,-31.801002190647942,-41.190043186030515
1776353242838,-9.18864815777689,9.48672538768351,-1.968334428095445,11.650975959795478,-18.230476696701253,-57.63160625419351
1776353242854,-9.009382016211747,10.19615609806478,-1.9897324593026189,3.9947317587303375,-3.01618549738142,-64.7633072949273
1776353242871,-8.185177802442015,10.518176221355795,-2.2343899414498356,1.4161765451523214,11.423931080274146,-66.25608611916861
1776353242887,-7.772178308326006,10.06267994003296,-2.299333026807755,3.342660642301802,11.007528597524319,-68.80066626426769
1776353242904,-7.4878662766605615,9.993097869762778,-2.309059397986904,8.558647086659933,9.014320595816395,-67.12573312505131
1776353242920,-6.8848276102915404,9.369560312983394,-2.4404414332836866,17.246405239200616,2.4031452835215106,-62.981980299009635
1776353242937,-6.726211458045244,8.607753518676757,-2.372655306519568,29.947176151785175,-9.612604185974492,-62.262399379381286
1776353242953,-6.577171820178628,8.297854041290282,-2.297237661963701,37.70141478441978,-19.483522711264282,-62.351437725401574
1776353242971,-6.178987325617671,7.646781996375322,-2.210448436304927,47.006072207701436,-32.38897561025391,-61.65436910927758
1776353242987,-5.933730708533525,7.240963061413169,-2.277336152924597,54.41606247597823,-42.590836437624674,-62.38301368993454
1776353243004,-5.920413546320796,7.1981684603035445,-2.252945369642228,61.5243769489939,-52.44691210807438,-63.302439114488294
1776353243020,-5.921459840503335,7.344062785881757,-2.0042472338020803,65.88624503599075,-60.53460057598901,-65.31591057991635
1776353243037,-5.951986496192217,7.797016396984458,-1.6361391669444738,65.61772980915005,-69.81371309177482,-66.92997307324958
1776353243053,-5.972936345240473,8.016087017932534,-1.5720941264048218,63.93037255583342,-76.94267522665143,-67.91786431404354
1776353243071,-5.977275835749507,8.565705936542154,-1.4517853468514978,58.718589879466016,-86.82181986102286,-66.82552582046175
1776353243087,-5.956625846430659,8.981248977661132,-1.5780797766856849,54.742692367371994,-90.81862799726088,-65.39453971764154
1776353243104,-6.047753978076577,9.227401666802168,-1.601721933557838,48.461742614182064,-90.22348629412099,-63.15399861325641
1776353243120,-6.150705818507075,9.450362865447998,-1.7248741198435424,37.15279349971685,-82.35258120027339,-57.96660654241513
1776353243137,-6.313961028730869,9.106196376800536,-2.1495456393137573,29.64278194123439,-72.69136058156039,-56.36479740845291
1776353243153,-6.388329748755693,8.744372650909423,-2.384626022559404,24.221560051705012,-58.68735542439155,-58.71647935101249
1776353243170,-6.46045448924601,8.030300836724042,-2.650382406836748,17.056778697273554,-38.219754425437465,-65.9038191127252
1776353243187,-6.3727674379646775,7.665334136632084,-2.7543805414497853,11.787981870583117,-20.7915773618553,-73.24914798012948
1776353243204,-6.1864703748494385,7.569567823791504,-2.826056953650713,8.22355715220546,-3.484108523927477,-79.39743155397568
1776353243220,-5.645079770880937,7.640195603722334,-2.8145350042916832,8.02171652449512,12.858598655056984,-81.49446355370966
1776353243236,-5.082741655951738,7.6178996007621285,-2.6625031988717613,10.686129777261137,16.81616308564505,-80.46599415905666
1776353243253,-4.852301499727368,7.612364178466796,-2.5631436838448045,15.523766643726285,15.232838151124177,-77.52406775899209
1776353243269,-4.612580889460444,7.519438057488203,-2.4117104288399216,23.444540656251434,6.57921216141334,-71.52157457297982
1776353243286,-4.527586730524897,7.43190005928874,-2.0548247438728806,26.538489991767566,-1.1774393422672789,-67.81257011779863
1776353243303,-4.521901086103916,7.413794493755698,-1.9427464709177613,28.109518878235125,-8.343736038199127,-64.07733773620458
1776353243320,-4.585795173865557,7.395837396782636,-1.811065233478695,28.275069003337894,-15.339431790858688,-61.555085479502274
1776353243336,-4.491075155207515,7.374589149309695,-1.7567466371834277,27.913572703778506,-17.190551367262838,-59.17505142169797
1776353243353,-4.379146812117099,7.392695883886516,-1.710209196283668,26.277477727730115,-15.73350297011716,-55.19163045623318
1776353243371,-4.035877564570307,7.395238846367597,-1.548451092749834,21.28088357625855,-8.584270541331236,-46.873470915154805
1776353243387,-3.686026016023755,7.339723587633669,-1.4582196176826954,17.94361728929718,-3.2140603465049207,-38.19754265025659
1776353243405,-3.594147942793369,7.292887017656862,-1.3747219809152185,15.057022251698879,1.192218164083894,-30.081631840691465
1776353243420,-3.5727480118900536,7.285703535893559,-0.9793791395209729,7.174720133447473,4.52121768099373,-18.468030676034296
1776353243438,-3.538930497962236,7.603235115593671,-0.5241812566228211,-1.807838802067893,9.11275472081368,-8.616742968192769
1776353243454,-3.5734979534745213,7.803151538738608,-0.49799526048675175,-11.82603285444926,7.673878041954821,5.672228780206408
1776353243470,-3.645622693964839,8.213307626122235,-0.9804266027472913,-16.42830737853129,1.4629681434436688,26.650908075316806
1776353243487,-3.9064410373181104,8.171259167204797,-1.7772466966375708,-11.303765000885173,-5.607920414736622,40.67960607388254
1776353243504,-4.01492830004394,8.085666750115156,-2.0308825811408457,-3.156672456768239,-10.658859393226216,52.61825423359332
1776353243520,-4.656274485236406,8.280793893156945,-1.8007396542973815,0.4710048826047605,-11.593354776409958,57.250423641898855
1776353243538,-5.269339747840165,9.670328973931074,-0.8071458192020654,-9.261355731491062,-5.418733139350555,62.491600037359404
1776353243554,-4.936097388789057,9.988308881920576,-0.6001973054632544,-22.925934637856123,0.3452113143090787,76.24711608233402
1776353243571,-4.780474280878901,10.052503413933515,-1.2479786382697522,-27.63721812731791,3.7125877431745122,98.97287665863728
1776353243587,-5.311837411829829,9.726443075340987,-1.8686757109262049,-22.416624506921195,5.572868737689763,109.88894646185419
1776353243603,-5.515793465754389,9.480438854759932,-1.7694659796334802,-18.070701496541727,7.243397685551951,120.0196879444922
1776353243620,-5.990892857691645,9.13028686196208,-1.1902183770880101,-17.986295726326002,5.721199529008107,128.96152571906276
1776353243638,-6.360347516852617,8.964787672203778,-0.9705503747686743,-18.517973019245428,2.4391557483731106,136.12632585651446
1776353243654,-6.891860285407304,8.590992938011885,-1.1388930443245917,-16.39067132865723,-0.6059940199573951,142.68200972378438
1776353243670,-7.200712299567461,8.335112635582686,-1.2026382251348346,-15.231547245371045,3.213977317017823,142.5705137157731
1776353243687,-7.9397730090588325,8.080430018505453,-1.0603332292854786,-17.872216199261157,11.534871281641724,136.77190167648573
1776353243703,-8.167072529169916,8.14686911457479,-1.0106536179024725,-23.204464629567365,22.61659366279895,128.64271980936326
1776353243720,-8.436269993811845,8.573634975975752,-0.9967370284918695,-33.53120522062806,40.70660922676618,118.49497115569191
1776353243737,-8.500764385554193,8.90598009392619,-0.9792295019172131,-43.88986328568023,56.03888468692199,112.1588505494812
1776353243754,-8.511987790358067,8.895507215228676,-1.1170459541756659,-60.21599274177542,77.35722672813618,102.04196752066915
1776353243771,-8.497921271082758,8.786271179962158,-1.2970601376291364,-72.27736232539841,92.23302357058712,92.04875872715851
1776353243787,-8.359505903083086,8.615983002361654,-1.6623255284067242,-83.50250501874757,104.49405324402791,80.14496843787688
1776353243805,-7.804949235810339,8.365939151000976,-2.3217785943064837,-92.15865647090402,112.09957133767466,63.42959674626643
1776353243821,-7.272239950947463,8.078336845618486,-2.676419934412837,-94.3892323292901,111.65110111677163,52.01470115249056
1776353243838,-6.151154439057409,8.262838842010497,-3.4343343243908135,-89.71718486151545,108.7304166050258,46.10403985986911
1776353243854,-4.473866830775141,8.37566734881103,-3.998916564984992,-67.25991902148539,95.56175041353868,55.22366745853512
1776353243872,-3.9882919297918673,8.495375678253174,-4.0864547093149275,-41.23994796320122,75.1224161524647,71.25808636536824
1776353243887,-3.801993113110959,8.434922086334227,-3.5898076485667376,-13.704233277138862,52.321632778318005,86.85545171249599
1776353243905,-4.69233714774251,8.169464977264404,-2.344972276758775,6.209072684346125,22.489866332938536,98.41977476983881
1776353243921,-5.200805433057249,8.07594147491455,-1.9062348956003785,11.7966980457377,7.377225850828242,101.64703915266983
1776353243938,-6.087707802802324,7.680749732428788,-1.5004177142038941,14.244208396126206,2.1537003717302983,98.88183023700101
1776353243954,-6.840983207868039,7.612213956341147,-1.0865198099434374,7.6293853359277115,5.518708325779324,88.14692437132952
1776353243971,-7.025935578376054,7.625532872119545,-1.133206961512193,2.0157751601690572,13.045461531691132,79.89254513672073
1776353243987,-7.254880965998023,7.465120776367187,-1.2921220967050642,-2.0911055299685395,22.555374677268127,69.58142518829185
1776353244005,-7.315484195520728,7.253682257732748,-1.2096719231639057,-11.498250368633053,33.39907521113417,51.31367102664796
1776353244021,-7.254881112128496,7.217171851459145,-1.2942171692881732,-16.575122294740716,36.877157800666396,37.481892504495576
1776353244038,-6.912060923523455,7.262661683002114,-1.7353488251719622,-15.632800368541783,32.254550657198884,27.884819314920044
1776353244054,-6.724714497485756,7.459584185028076,-2.1444582530468703,-5.559538769750837,19.20433189875084,20.62519566122108
1776353244070,-6.691944154523313,7.461081145587563,-2.272098690662533,5.298946135460517,8.300403610557275,17.629044389335778
1776353244088,-6.930167219708859,7.468413388171792,-2.19862677334696,14.608169540202322,-3.1046569377005953,13.868901454065053
1776353244104,-7.3247615808233615,7.578994992828369,-1.9985615163158623,23.846242864360104,-14.642988137043753,5.919936262627498
1776353244121,-7.51584865469411,7.640196188244223,-1.8778039700817315,27.46507003947691,-19.260231874465514,-2.795558007472138
1776353244138,-7.731327096369117,7.977031018829345,-1.495180325007066,27.74947911651624,-20.34172744273992,-11.880687174414055
1776353244154,-7.844004212000221,8.251167108917237,-1.222839959229529,24.015932084099898,-20.938740617712394,-23.838236175105553
1776353244172,-7.807342852948605,8.311321425628662,-1.2629427639719097,20.92121264475485,-19.50886442063232,-29.344432448099063
1776353244188,-7.895778822901099,8.364144084277749,-1.4252996371164917,18.470774704533348,-17.58894947136051,-40.38802529821469
1776353244205,-8.0008247130014,8.47816793834269,-1.5375281321972607,16.027636528987298,-15.261075860700302,-52.14052348228595
1776353244221,-7.932589381165057,8.690802388763426,-1.6015727343454955,13.360335813749659,-11.606945145310991,-62.83877172268198
1776353244237,-7.807492490552366,9.452157932171225,-1.761236203687638,11.175240477499397,-6.372238646541736,-73.42639138909132
1776353244254,-7.649176198035478,10.188225889587402,-1.9542685664072632,11.925133776664266,-5.191727106530126,-77.2230203411346
1776353244272,-7.504326997596025,10.404303173938393,-2.001404411591589,13.695208889697982,-5.264969359434289,-77.58140036688518
1776353244288,-7.265205814526975,10.18224038543701,-1.9984118056468665,16.129529291025545,-9.880975978842633,-78.0652441374997
1776353244303,-7.2490449533209205,9.575010989379882,-2.354250027387589,22.67772727096515,-15.640940246485147,-80.05461186534679
1776353244320,-7.3479551171451805,9.365368121990562,-2.5128657412424684,31.59605553441254,-21.693365530424792,-86.38774084870103
1776353244337,-7.446267607337236,9.35294936992228,-2.4257769481152294,38.41284387327373,-26.128531792499647,-94.19624533429139
1776353244354,-7.31892629879862,9.698762456732988,-1.932122639442235,38.71083819657221,-25.924814570314844,-103.28044474173254
1776353244370,-7.196821721869707,9.904513577380776,-1.7607872908763587,35.59314029331195,-25.592356820011766,-106.98581553627528
1776353244387,-6.926126712146401,10.026466470879315,-1.9815023180305957,36.13930270991368,-29.424704246319635,-108.26466600552263
1776353244403,-7.017256597357988,9.835528888481855,-2.310854830036312,42.86520855167867,-38.82049346860218,-113.7083267740228
1776353244420,-7.124846034461259,9.864709974780679,-2.353351763373613,48.008009732523526,-46.984311225005776,-120.2863385296895
1776353244437,-7.175572597613931,10.219050651440023,-2.205210389520973,50.17109649172072,-52.568346041328034,-128.36329677041803
1776353244454,-7.025337027961015,10.553940193176269,-1.9319724173165858,48.09039547429222,-55.02826257657023,-132.51736318210644
1776353244470,-6.910265710669756,10.73200894165039,-1.8266273981392382,44.351430394316765,-56.24506760739717,-135.31145696777526
1776353244487,-6.563854657965898,10.981753517803549,-1.8420400713264942,40.81691678186189,-60.28744335068293,-133.97946079659604
1776353244504,-6.226720552173257,11.080064838951825,-1.9111727903939781,38.98460242379008,-61.87574920065603,-130.9190169540534
1776353244520,-6.087258889991045,11.023950737541913,-1.880796064569801,35.65514133550274,-61.90551516505895,-127.46531813985811
1776353244537,-5.806538745337725,10.663923247417808,-1.880796064569801,29.673633905715338,-58.33332622914228,-121.9809904250397
1776353244554,-5.556943222266435,10.140041996654867,-2.1236578954719008,26.73979444962806,-53.90259959002793,-117.24773763211256
1776353244570,-5.465214786639809,9.846153158348798,-2.2269079881966114,25.520709843165626,-48.77805550483452,-113.23974847620323
1776353244587,-5.241657960188388,9.234136528015137,-2.3259685202769935,25.76758873826303,-40.423952093248964,-107.9955633824133
1776353244604,-5.079599266272783,8.650100376018882,-2.274193763245642,26.497852073753283,-34.254720329218344,-104.03608906017855
1776353244620,-5.0041830830216405,8.39481862400472,-2.184261271125078,27.330206246767716,-30.04500495126727,-100.96436857531623
1776353244637,-4.81952911093831,8.007855488421022,-1.9840460111640392,27.406509705080513,-24.624324354229614,-97.95174971734203
1776353244654,-4.580408220130205,7.7902824125543235,-1.6588834981940686,26.493636139488093,-20.52038128576536,-96.47434564892242
1776353244670,-4.414160257831216,7.737160770958662,-1.505055895398557,24.2512184406285,-15.651725115184597,-93.97818471484956
1776353244687,-4.038869732123613,7.792975889421999,-1.1752550551034509,18.693160541267083,-8.055614753345894,-88.84609668571787
1776353244704,-3.6381408137768503,7.735814032524823,-0.8240551606878638,11.514480605648297,-3.1329552652056045,-83.43914135381736
1776353244721,-3.438373443713784,7.683440578947961,-0.7398090436406433,4.284856850331323,1.6440955821657097,-75.73061717729765
1776353244737,-3.0334558415055275,7.512704657579958,-0.6700785048104823,-4.582496857566615,6.111854759907925,-61.95047147017597
1776353244754,-2.5863369279056787,7.307700263646245,-0.7625539594121277,-9.511695824950369,8.384742786428593,-47.752516261335444
1776353244770,-2.372205516925454,7.258469784270226,-0.8346795766852796,-13.056787692882304,9.957770357002024,-30.251030777391534
1776353244787,-2.2671605036079883,6.936449953240156,-0.9912009486094117,-15.059057648071542,8.508962583089968,-9.90852981572811
1776353244804,-2.3563445154488085,6.704960580223799,-1.208773732215166,-14.466190397925267,7.380553006727685,4.942575892873225
1776353244820,-2.4827877061039207,6.579414046147465,-1.2577047902531922,-13.304429861619457,7.588760224518122,18.10532372544452
1776353244837,-2.8335376647949215,6.354808587425947,-1.1905175061650572,-13.427374974226979,6.645296802954152,31.40192789782244
1776353244854,-3.2155636362373827,6.4112216717824335,-0.9747403738044201,-15.526939266595756,6.36537387953905,39.67204047318435
1776353244871,-3.3545781391739844,6.533476470836996,-0.8240553068183362,-20.52293577651494,5.926067638068054,47.338074042877416
1776353244887,-3.625421032935381,6.821228998345136,-0.7489372297309339,-28.003767059315816,4.671339262535087,59.03431537384986
1776353244904,-3.7777521135628223,7.207294016045331,-1.0347450529120863,-31.34610817683051,4.7976239107599215,69.8625489443404
1776353244921,-3.794661162787676,7.412297825457156,-1.190667436029762,-33.15695183524638,5.859135199296515,82.18416239571921
1776353244937,-4.141221268573403,7.612661992369592,-1.3198049803353846,-35.93131661949762,9.704889433171473,95.7145554056502
1776353244954,-4.7385745827823875,7.778161474388837,-1.2330150240242481,-39.995648005870386,13.013880444516285,103.16601858256732
1776353244970,-5.118655265375971,8.007855780681968,-1.1870764258004725,-45.859809370622386,18.035908512909682,106.39803677706067
1776353244987,-5.987001695472002,9.242066736492514,-0.8653552854560315,-61.00792585528172,29.421804831016967,107.80127182128311
1776353245004,-6.127659873962402,11.031432617729902,-0.6250374399483204,-77.9263044294033,39.53660465213217,116.1241168721321
1776353245021,-6.101324240222573,11.751039854210614,-0.7876933691047131,-93.53707060768264,46.817306269609794,131.7619715806597
1776353245037,-6.383541345435381,12.337170932659506,-1.4927859041512013,-106.21925657553558,53.008042884242194,152.34089441780125
1776353245054,-6.712744658228755,11.59347262649536,-2.4003378978889436,-108.74197328510145,55.67176884922298,165.85779780412145
1776353245071,-6.909817382380366,11.022605168151856,-2.707694266663864,-108.36296608805745,63.25531763940438,173.99017619977548
1776353245087,-7.581689638739824,9.708936644744872,-2.936340159882605,-110.19619569147804,95.34355319031346,166.26749987129548
1776353245104,-7.625682509723306,8.679728621563315,-2.404527823859453,-121.98891344447692,123.79004798898762,148.49668636799964
1776353245121,-6.396409594836831,9.467122277069091,-2.5682315815683454,-134.7614764754275,140.23722547264836,138.5687332018193
1776353245137,-5.976975976020097,10.321254303851724,-3.121591659467667,-121.86135283153776,132.01692888199793,150.918985636388
1776353245154,-6.305579569354653,11.269058886066079,-3.6876707144908605,-95.19372616068006,105.86023451200303,168.59862977464252
1776353245171,-8.041974907904862,10.936116386744379,-3.0431814089670777,-66.01829991340378,67.79705192800435,167.62911174271588
1776353245187,-8.728361719568074,10.533140566253662,-2.5290268216442313,-64.9963396890298,51.90635386168665,150.15134067557025
1776353245204,-9.553463758960365,9.794081610327959,-2.082957051771134,-78.38624936811196,55.573881993132936,124.7170549235201
1776353245221,-9.31509105617106,9.140613610187172,-2.651130996714346,-99.14966244492472,86.39875111364309,89.25542309248756
1776353245237,-8.992173107257484,8.847025216132401,-3.1488256120203992,-104.6903255600174,117.12792245369221,65.4284174559248
1776353245254,-7.708730795288085,8.447191785320639,-3.5646683347722745,-102.2610936496215,144.10184212768996,47.42443153964847
1776353245270,-6.265775674493611,8.291720653101802,-2.9113503923603563,-101.23263791534683,167.5554686430848,37.03051262300611
1776353245287,-5.738003261511028,8.04376997462809,-2.6244957772397433,-102.62937061947942,177.51376150955832,35.73081983150648
1776353245304,-5.187336587414145,7.6490259759098285,-2.307563095014542,-101.62137130176893,175.35348195811002,33.86568299937817
1776353245320,-5.077353240911663,7.515251127192378,-2.3497603512855245,-94.97263293724674,162.513286393998,34.31036246529185
1776353245337,-4.973803434588015,7.320420629009604,-2.429068829267472,-79.34949045619135,133.42739026636224,35.140920298554576
1776353245354,-5.13047400572449,7.015609414672851,-2.3503591574288905,-68.04376519101439,108.87634359664311,34.60724346775563
1776353245370,-5.3598690368101,6.622513767683506,-2.4899713339976963,-56.05065651795651,79.42449959365644,32.913202874336136
1776353245386,-5.396979162542522,6.363790935304761,-2.6132722080390898,-46.89564170920067,64.80251258076318,30.420136015957294
1776353245404,-5.064334477123618,5.645081524446606,-2.874240481257066,-35.8221975173175,54.09040588654119,30.064812499860306
1776353245421,-4.866513857214152,4.951959559309482,-2.769493720233813,-18.8579712983922,44.85416988327014,27.604347841937226
1776353245437,-4.779274549700319,4.799178981348872,-2.4756052472539243,-9.39968499143039,36.06227525154886,25.26612137204257
1776353245454,-4.742014640233665,5.046229496112465,-1.7778457585092633,-3.338498068889502,26.525452868189305,22.675287185884162
1776353245470,-4.804114538054913,5.804893316218257,-1.265187181897834,-2.956625394045263,6.6232694428808605,22.09030197404008
1776353245487,-4.927864690233767,6.158038061091303,-1.32354570123367,-1.4811273752909113,-8.75408355824974,22.127577731435427
1776353245504,-4.936244396044313,6.690898152601719,-1.6069593227546661,2.26742024664666,-19.418120234866823,21.780628027260875
1776353245520,-4.80950178405121,6.947377005445957,-1.9066837353464214,3.853881305213627,-21.89838561119377,28.655956209950947
1776353245537,-5.014355663598328,6.901737536299228,-2.1136322490852324,5.976390764325416,-19.244472920503004,31.516477000392722
1776353245554,-5.789777726281434,6.8339522863179445,-2.626439951843768,12.383342139776449,-16.23057169451213,31.49133165896332
1776353245570,-6.748356215966493,7.2465014063179485,-2.785505747553706,21.510686998430923,-15.750783348717292,27.921046638277794
1776353245587,-7.3063545481257135,7.550563848114013,-2.819174135334417,29.463383607589417,-16.593015682818855,20.671135513578587
1776353245604,-8.135047159355878,8.12711870444417,-2.8909993814215063,38.05665292315214,-17.21880615231189,10.958982174224806
1776353245621,-8.548645788408816,8.544159290644526,-2.726997444483638,48.617095266854,-16.834392860539815,-7.53957603230486
1776353245637,-8.397062895800174,8.705019130164384,-2.578706140766293,55.39394748963812,-15.737023932634301,-19.524507261378943
1776353245654,-7.8351741320736705,8.69379747892618,-2.194735684192553,60.724821344373865,-13.385782537276187,-27.95834459378794
1776353245670,-7.192030980461835,8.1724577293396,-1.8353060960295144,67.84801196940182,-3.9086261251849255,-34.99704919387742
1776353245687,-6.833050661303102,7.744345714026689,-1.683125022898591,72.95741694029991,3.0661308288003153,-35.32984333099713
1776353245704,-6.508636628612876,6.880487242999672,-1.5150819436440244,81.76082044077266,0.29785563844182333,-36.00573153050491
1776353245721,-7.0827961142390965,7.193828969794511,-1.61234642262049,92.48608207933609,-13.547408718700783,-43.006999863753556
1776353245737,-7.7835488665156065,8.22932118781209,-1.5635650021862237,105.35495077758384,-36.49924684898418,-55.67219232095152
1776353245754,-8.694393106731772,10.989238320600986,-1.0411799813304097,115.92906032981489,-75.16734513682503,-65.06220320319623
1776353245770,-9.318681481878459,12.763939716669917,-0.31768224021717906,113.22953051320489,-105.46807920080676,-73.2916932284695
1776353245787,-10.089314848980306,13.561656613269447,-0.026637100904434916,95.14167328901539,-136.0238866793426,-95.82520447020441
1776353245804,-11.603049433135986,16.49111198207438,0.028729104747623205,54.77748535100404,-165.88793259873955,-125.20119239226894
1776353245821,-10.187028788757324,16.953791452899573,-1.8131607444532214,40.33345891693546,-173.12356179788426,-125.74759386549161
1776353245837,-9.80305898977071,16.284462451282142,-2.630481336189061,36.898608009754824,-166.69550684544518,-128.6325701482566
1776353245854,-9.250447319085895,13.857789431110024,-3.383906671119481,31.76755475428239,-147.2595615243919,-142.754027238393
1776353245870,-9.441085334014891,12.450896680560707,-3.960459993079677,27.346699446066005,-118.51648625157745,-162.562982850399
1776353245887,-9.636212769317627,12.235118671417236,-4.042012779389694,21.03818817202778,-76.90135941236203,-189.40361821293314
1776353245903,-9.260473330798744,12.607118923407793,-3.864692291999608,13.966429725223664,-28.320576846230395,-213.4711694516854
1776353245921,-8.022970347705483,13.314903620147705,-3.364004650623724,9.677100808533275,31.645895424786122,-227.98847698535903
1776353245937,-7.090278578948975,13.475464768981933,-3.0383930787120015,10.576049325955333,63.54976709452363,-220.80778982789792
1776353245954,-5.521477941131591,13.195492227825522,-2.1944372127026317,12.34221330191557,81.75814300661801,-195.14590851232458
1776353245970,-4.22591556777954,12.397176196289061,-1.7218815138988195,16.102039487163538,76.53779527303142,-167.6474166496915
1776353245987,-3.7366006034851074,11.801468895721435,-1.6346427909068761,22.89674240934349,58.65170183692408,-137.339941188999
1776353246004,-3.284246127319336,10.482263780975341,-1.6400297446422278,36.19064182681008,19.111830646821357,-102.20335806056738
1776353246021,-3.733607851409912,9.418490640369058,-1.9538197997264564,51.74184875552689,-13.334526236423473,-82.99353981236573
1776353246037,-4.057273403820395,9.029581923675536,-1.887081136188656,64.25506608859749,-41.900003784212906,-69.67691123288863
1776353246054,-4.523096433368325,8.34050105062276,-1.4838083785779774,68.37946898872052,-66.94907711235811,-60.87192312852843
1776353246070,-4.736181550166011,7.885154114642739,-1.161040067268163,62.84504183634005,-71.66709175324694,-57.6749984459906
1776353246087,-4.670938385882973,7.6279264892578125,-1.1806424472302197,54.45149066720308,-69.08560809606229,-53.73661233281828
1776353246104,-4.480898044586182,7.107636248724162,-1.4671980200387538,45.6405773737379,-56.61215953943409,-49.23268655636891
1776353246121,-4.246416504016518,6.628048313196003,-1.71035956453979,40.657148411891534,-43.96045329075231,-46.831584780069704
1776353246137,-4.111891713714599,6.3959598052427165,-1.7486662065804004,36.7302916580382,-31.325819099900986,-44.55108023885082
1776353246154,-3.7027830895572897,6.117933137457072,-1.6594827792614697,32.615864249197976,-19.412669743909152,-39.297356785884965
1776353246170,-3.3301854561954736,6.078877138353884,-1.4665994696237146,30.480122152342933,-14.465724237514413,-33.01352810795987
1776353246187,-3.238905933380127,6.082319095501303,-1.332973527857661,28.600052819141684,-13.134828580565225,-25.628541454687202
1776353246204,-3.1016888352543113,6.0434139030456535,-1.3036444113902748,28.856787677211415,-16.807094301974566,-13.606711836169419
1776353246221,-3.0178917771488427,6.2099599715083835,-1.1357508738413453,28.29201982531057,-17.746875397802253,-2.7953629201939694
1776353246237,-2.951153990393877,6.2907645697996015,-1.009756157606095,25.63688282321108,-17.968766045821166,10.011973030707953
1776353246254,-3.037344665637612,6.308122239574789,-0.8119350993052125,19.512380260507584,-12.13042194235817,24.2625838754074
1776353246271,-3.4023113657295703,6.378452497863769,-0.6193516493968665,12.147038938835165,-8.480031609313086,34.43978088968525
1776353246287,-3.564667581287026,6.418704721014201,-0.6184539699047803,5.955142899591152,-4.068240815898953,42.610538118285575
1776353246304,-3.9772190393745896,6.637475189971924,-0.6899805983714759,-0.9314555221162645,-0.08070812991466231,52.65759953830718
1776353246320,-4.274399320441484,7.064989531652629,-0.849793705317378,-5.314962502177374,0.03558955444399769,61.546124271311214
1776353246337,-4.436456260791421,7.283909053692221,-0.9665107439890503,-6.8580623182419265,-1.9710107406790283,70.0602077887314
1776353246354,-4.920981652721762,7.9842130392879245,-1.2183506849862635,-5.689277786148406,-5.191105559315655,83.64455246291632
1776353246370,-5.84783813945353,9.033023004040121,-1.16612745353505,-5.227241528893254,-6.532200396242965,89.67748097187017
1776353246387,-6.231957868304848,9.873836699566244,-0.9078528033152222,-9.814176728759907,-5.279857037390801,99.2593143018601
1776353246404,-6.0046583481937645,10.56636011428833,-0.952295317762345,-11.69616534511793,-2.885051414845876,121.09342100277489
1776353246421,-6.06481324942708,10.61678740223348,-0.9781827693432569,-9.261607594716706,-3.638165148204407,135.7570311884702
1776353246437,-6.095638595801591,10.710910039520263,-0.851588918171078,-5.174526982652742,-3.425760992612408,149.13774060274037
1776353246454,-6.32667905600667,10.862044019317626,-0.06599157149754464,-4.888718997494028,-25.38720867319585,160.00050077948532
1776353246470,-5.773917747718095,11.454908789935708,-0.3375843337781727,5.391767979394167,-68.56463541711956,174.33317463951516
1776353246487,-4.976199682074785,11.817779979053139,-1.0323513627085834,35.03587881930895,-112.88391611101308,211.43503541859124
1776353246504,-5.3604696330517525,11.641506881824135,-1.3618533661875873,57.27035413389695,-113.74719055040016,230.2492832610116
1776353246521,-7.1526792132824655,11.079468042102455,-0.7616569375071675,60.265402330231296,-85.61616852911054,242.1062730941003
1776353246537,-7.754969983893632,10.153808656200766,-0.5174482220407575,42.68168478377502,-48.82797735747815,244.46932730162794
1776353246554,-9.314342868152261,9.773429867443442,-0.14335435877181588,6.903179559691269,27.463958426189492,231.2818985804908
1776353246570,-9.063400898908078,10.019135397338866,-0.4338010207347572,-28.543749862265976,79.4468752933774,228.33181693455725
1776353246587,-9.1771254777655,9.95329543620646,-1.3790617636851965,-57.60755032793673,131.9764395205981,195.1197352274251
1776353246604,-9.703101070459187,9.350554583740234,-2.2951431008372456,-44.13086309544955,142.97468332971943,150.62314282267806
1776353246621,-9.418939260919391,8.807219859966635,-2.8896533005747944,-21.876558034153703,124.63916344622527,112.67433175633124
1776353246637,-8.756793741065263,8.710555136981606,-1.8831907046213745,-11.86619948941081,106.22969993477653,73.1773285410068
1776353246654,-8.65518907746002,8.29336549769938,-1.2861368848156183,-19.697258113414197,102.3791671298035,40.91194861887886
1776353246671,-8.13849043167755,7.613412226215004,-0.6108221598520874,-34.1059519789063,101.4767215555264,10.93214977607041
1776353246687,-7.1844009239748114,7.735217820197343,-0.9292510537181049,-49.90123571761352,105.74410763573448,-15.539747578836822
1776353246704,-6.670844667871296,7.772626636615395,-1.2686291390452533,-53.79812501648342,111.05957258370267,-25.281410750499646
1776353246721,-5.833023432159424,7.563731372722983,-1.652748940961808,-52.419266917408756,112.30005105019288,-30.241987606930437
1776353246737,-5.3205146392822265,7.388506323242187,-1.7990945174388586,-46.25672190857558,106.40113768294385,-33.58232235637644
1776353246754,-5.1521717505306,7.368454299816489,-1.784429813074693,-41.986053922471314,102.75038108100453,-33.52962061674062
1776353246770,-4.998344878387451,7.388058579474687,-1.6539458225961774,-40.168653282452226,99.85908004306809,-32.10431381621528
1776353246787,-4.982184309442341,7.520338805720209,-1.6312014913465827,-38.291037694710305,98.87025306635783,-27.905113514491443
1776353246804,-5.051465935461223,7.522433147650957,-1.6291064187634736,-37.04435058626456,96.52995021895549,-25.14718899557243
1776353246821,-5.293429648479819,7.486519538226723,-1.620277325217612,-36.35053655528008,93.40952365512182,-23.988239082110084
1776353246837,-5.5119008422300215,7.462278830939531,-1.7751526104351505,-34.18921198488875,84.08556411724571,-23.994413573119775
1776353246854,-5.550207776531577,7.5360501695930955,-1.867329045557603,-30.14262201488509,76.83946423810337,-23.718506374049817
1776353246870,-5.496337946917117,7.528267260631918,-2.0940298325905573,-24.138839630666986,67.00496172014715,-22.850128075805443
1776353246887,-5.32784600508362,7.510012057495117,-2.31758855873812,-12.20745110827028,48.372642796459246,-17.560117535326594
1776353246904,-5.266495172064006,7.445818110004067,-2.4355031731639056,-0.3039701518528657,32.6788146876834,-12.812897859320428
1776353246920,-5.2620057516902685,7.365014388495683,-2.4371488945443183,11.911310327557807,16.567687633829156,-7.513500077601044
1776353246937,-5.522674749700725,7.3699535984635345,-2.4073712671244514,29.525046555416292,-5.000292698907125,-2.3786296001562195
1776353246954,-5.782594975170492,7.451205063739419,-2.2379814631357786,40.322571595398465,-16.048188568199866,-1.9257227445004357
1776353246970,-6.349870838762819,7.792079525104165,-1.708264565021917,45.10662733537215,-22.94749583751856,-4.189303357616491
1776353246987,-6.8454711669370525,8.250569727545976,-1.2786551507581025,44.744401913118864,-25.931110297182304,-9.162423856458012
1776353247004,-7.076511627142131,8.40155406973958,-1.1441305065866558,38.418792968040805,-22.68071547872703,-12.305625686079106
1776353247020,-7.354986623217165,8.5993743973881,-1.0512058469127863,30.298411799663914,-18.215211223906273,-17.742866076759455
1776353247037,-7.618948233032226,8.588153330671787,-1.406894357984513,20.75768767074099,-11.39304240352641,-30.16846745070442
1776353247053,-7.589020127758383,8.56794991607666,-1.684023200147599,17.467916811720592,-8.580549795780872,-41.172684260254925
1776353247070,-8.035539321899414,9.54373906828165,-2.129344489740953,15.462561318573801,-7.339536866988112,-55.402724282721586
1776353247087,-7.095365965215861,10.522218190222977,-2.47800003343597,17.810710345785193,-8.640477875558563,-54.39371068191936
1776353247104,-6.800429955944418,10.600777347674965,-2.707693901337683,25.989011518323796,-12.61503410925433,-46.68038488241313
1776353247121,-6.888866364288329,10.376022251349687,-2.940081099976599,36.1970143933057,-24.18603453028448,-42.820262491845405
1776353247137,-7.224354456439614,10.325594963404535,-3.120993401313573,51.66345867442265,-38.959805422008344,-42.212495184024746
1776353247154,-7.426363760210573,10.3169142288208,-3.1519679469004274,63.04393011478165,-48.194719783675,-45.62910265593228
1776353247170,-7.1130234947204585,9.460838666754961,-2.5694287554636595,68.184842748321,-53.03822549018448,-47.39881833026092
1776353247187,-6.934655471038818,8.513033500018715,-2.069938726374507,69.98029457544226,-53.733767559028976,-50.5750270490461
1776353247203,-6.811204155676067,8.007856949725747,-1.955914726179093,70.13784654902693,-55.17474281351032,-57.69474452288111
1776353247221,-6.734889854541421,7.584982250544428,-1.667862923463434,67.8047632115773,-60.980864645790135,-72.49709634118689
1776353247236,-6.39087241897583,7.842656450653076,-1.507750102918595,65.57867478747592,-66.72323690745164,-81.62532314801794
1776353247254,-6.283432034954428,8.218246836090087,-1.4074930545300244,61.22660119174885,-72.52081758817435,-88.66518546517175
1776353247270,-5.983109364208579,9.094075146374106,-1.47901968299672,57.021308361285364,-79.29656332031293,-92.05038431218098
1776353247287,-5.585224144855141,9.685593763080238,-1.648259812849015,52.80936634166486,-87.69042184796254,-89.2580595455072
1776353247303,-5.451746817779541,9.757269590759277,-1.7091623175792394,47.85922772183314,-92.24377428834072,-85.58462671552343
1776353247320,-5.325752539935707,9.528772969818114,-1.9849444213084875,41.44472386470736,-92.14533077183331,-81.02009325547394
1776353247336,-5.4327428421020505,9.275136646923423,-2.2716500701121984,37.69082799120626,-83.72212292132016,-80.0549533748053
1776353247354,-5.41987400817871,9.181464091491698,-2.3032234583750366,32.46621821957758,-72.56573291215635,-78.54180009626984
1776353247370,-5.3489463685184715,8.84253550349772,-2.2985849849194286,27.319672387520264,-57.857890421396036,-77.30335019596312
1776353247387,-5.250784684973955,8.287828906360268,-2.271949345319718,19.27738418701871,-39.394270340018274,-76.60935516496563
1776353247403,-5.167585592761635,8.107664646911621,-2.3557461111642417,17.37431931442932,-27.796267619878122,-76.07819867397043
1776353247421,-4.923227385821939,7.867795568084716,-2.345571192499995,16.67932366071843,-20.96193081749188,-74.76359216441807
1776353247436,-4.680066279712319,7.763946486553549,-2.229601903455704,16.48573048643088,-19.48913029657286,-72.98222418736539
1776353247454,-4.477458717787266,7.782502718463539,-2.189199750440568,16.650240715232517,-20.020478032864833,-67.69914116625222
1776353247470,-4.099173686438799,7.7772648178100585,-2.1154282656565306,16.792214734867695,-24.142333272427447,-59.14968409912054
1776353247487,-3.948936947742104,7.65486125793457,-2.095975377167761,17.73057002870614,-28.029708117783525,-52.118434650510125
1776353247503,-3.9308307976871726,7.5517603644222016,-2.1276982569038867,19.260359940512455,-32.371630344856655,-44.88861452725452
1776353247521,-3.963303911268711,7.362619602313638,-2.1239580474622546,20.66572941885052,-33.44152483682579,-36.718495921341585
1776353247537,-4.029890891376137,7.167790857696533,-2.0590150351695717,20.709114780458442,-30.79603889202353,-31.044596306109465
1776353247554,-4.099472961646319,7.106888352966308,-1.9924261553660034,19.41165033817553,-26.395721962641375,-25.85213452735674
1776353247570,-4.067750374171138,7.0090253601074215,-1.883489979828894,17.186465206591876,-19.2188272677169,-19.026552319939164
1776353247587,-4.069396387812495,6.925977074542641,-1.7603383780650794,16.388765705878797,-16.30029426555962,-14.121355491072478
1776353247603,-4.105159190589189,6.9813424034118645,-1.6729501635998487,16.35829110934949,-14.935747120343425,-9.18845370738493
1776353247621,-4.201525807410478,7.1312792823791495,-1.4112339946240187,14.563114197342331,-13.526013151125719,-1.9626847400807828
1776353247637,-4.425533884760737,7.393444948688149,-1.0752975741833448,10.039286957198835,-8.57183788949452,2.686374445381722
1776353247654,-4.539557738825678,7.531859732165932,-0.8360270457714796,1.0573559722002863,-2.4446154173974777,7.697505373841188
1776353247670,-4.610335740882158,7.714566077312827,-0.8035552473641931,-10.96136591024514,4.464415693421788,15.083229687544218
1776353247687,-4.721066983142495,7.949497115215658,-1.0649724333934485,-17.168290073210475,9.60581924680773,20.442954261334094
1776353247703,-4.681711708831787,7.9919936101615425,-1.2309205359630286,-19.82800159450658,12.437916205018498,27.699724603507285
1776353247721,-4.8615772775948045,8.241141389465332,-1.5358822646863757,-17.8114599590466,17.89015739866349,37.5660711709214
1776353247737,-6.022614860644937,9.055319591522217,-1.293618545807898,-17.748830539452168,28.081515102638072,42.9195700272828
1776353247754,-6.861781958007812,9.60927683159709,-0.8821154277294874,-29.248557082719593,46.341235254270735,45.064771936138314
1776353247770,-7.336882518988848,9.326762204742431,-0.24136706229969856,-65.53193580298552,80.36557671787914,49.96434325044984
1776353247787,-7.43100340270996,8.47143307712972,-0.8026574217416346,-89.05561956869718,93.10678918053934,41.732882715601036
1776353247804,-7.3394257737308735,8.374468494415282,-1.594090708027035,-96.43728504248594,95.99276950111233,34.00515204713525
1776353247821,-6.631490270343423,8.607603881072997,-3.004425415723771,-85.53915131602947,90.38521151328855,37.99398935261186
1776353247837,-5.9219087533146135,8.183680549621581,-3.544766802900284,-70.05851390181724,84.86457451284234,45.34250108816937
1776353247854,-5.515044693213701,7.75033063365519,-3.503466824262589,-56.36039535153283,78.62104395102033,55.59780473070091
1776353247870,-5.078999546813964,6.676680826678871,-3.1459827350109815,-42.740540523853014,69.17955051790663,67.46434658334387
1776353247887,-5.671864317432045,6.149506964111327,-2.814236167475581,-32.94568042383955,60.8551891650619,69.66169357141784
1776353247904,-6.084713881683349,6.225224176135659,-2.6140207613840696,-24.089047551617593,52.55944630483951,68.03021409570108
1776353247921,-6.569838993072509,6.802375829315185,-2.0072402781382204,-17.579694565035144,41.94859033487379,67.55343274068834
1776353247937,-6.8324535721927875,7.2622127701908346,-1.2183511233776807,-19.350827503616564,35.55940940409584,68.33894547637483
1776353247954,-6.89515114364624,7.350498371887206,-0.9623207449533044,-26.377418763213033,30.18711045204397,67.95539620353276
1776353247970,-7.162554126086831,7.300970078608393,-0.8366255961865187,-38.50409178549051,27.284773535956084,62.300040551897226
1776353247987,-7.325360423499346,7.196372809058428,-1.1010355342909692,-47.83059898392703,27.702466924459046,54.64045126568607
1776353248004,-7.256525956726073,7.219117140308022,-1.6479608299024402,-57.03420034334376,30.098878068345744,44.305630560837244
1776353248021,-7.0833946646541355,7.270442253875732,-1.9930249980419874,-58.23698641089925,33.503519048827414,39.43760447520742
1776353248037,-6.581659779247641,7.259817984008788,-2.407072247645259,-57.29044855043513,36.58034851518891,38.09154835962174
1776353248054,-6.285677183532714,7.139509935107827,-2.545636668726802,-56.15464273297537,38.862796245226654,37.86780502279046
1776353248070,-6.233154384613036,7.078008879962563,-2.656218565644324,-53.84146939695632,39.733385817214824,37.300790038652686
1776353248087,-6.153696817016601,7.083994968634843,-2.847156294172257,-49.495051197862026,39.74629487474615,37.65283847904265
1776353248104,-6.195745568194985,7.154474864527582,-2.821867393006384,-42.91183825314235,41.93787035297146,37.84240696436177
1776353248121,-6.242730606731772,7.209838439831137,-2.7874507441416383,-37.98825882389822,42.88227036422536,39.921246755241434
1776353248137,-6.338199397930502,7.255628715625405,-2.512716249769181,-34.37698071536157,42.92509906541593,42.04199317177372
1776353248154,-6.583156447546184,7.14340109732747,-2.243967259547114,-32.38765055355492,39.308927126338965,42.19210365425767
1776353248171,-6.666504592840373,7.136068854743242,-2.223466907832026,-30.866683538608974,35.369007635697976,41.32000802555752
1776353248187,-6.718578478948771,7.078307570648193,-2.3431768447093666,-28.54406575851509,28.048175241751945,40.8110838003107
1776353248204,-6.840233850805461,6.999599360114336,-2.66804022860229,-19.20714081404701,16.057761078321636,38.993672915007856
1776353248221,-6.8771940466731785,6.986430666461587,-2.7620122053720055,-9.940466072739797,6.767330939081123,37.64896234668867
1776353248237,-6.863726662334799,6.880187967792153,-2.6500831316292284,-1.5893363547641308,-0.06416669240536081,35.761583003528216
1776353248254,-6.951713865606487,6.866272255164384,-2.3328518500499427,3.909106372860942,-6.227396374341977,31.982118316869173
1776353248270,-7.038353161400556,6.949918506622314,-2.212842345704138,6.2592417044603375,-9.551968327844056,28.309318986930922
1776353248287,-7.238868427221477,7.319972885242104,-2.164359762085974,9.440608069842524,-13.168743884888922,26.108133432543404
1776353248304,-7.513003932787478,7.764395399364829,-2.057667712213844,14.328094218191364,-18.740220544648473,22.58400683026882
1776353248321,-7.591863534490764,7.912687433734535,-2.007090786664933,16.732904787209886,-23.130399765755037,19.171517962430805
1776353248337,-7.741651360376179,8.033446149012446,-1.9161114158399402,16.933085678951915,-27.177848632046828,15.38556630360754
1776353248354,-7.755716710607707,8.081179960089921,-2.0660477102853356,16.7770892809507,-29.04661229462441,11.488273169802959
1776353248370,-7.760655336053669,7.943664171278476,-2.242770158717036,18.10429065933256,-27.152512045320666,6.555033291751495
1776353248387,-7.723544625799358,7.860463910022378,-2.4215869490794835,19.76166850483471,-23.60322644123834,1.4760385641941345
1776353248404,-7.924807202856242,7.9107427294075485,-2.562994776893407,23.056427109496507,-20.408492541876793,-8.93140636816067
1776353248421,-8.199691480962931,8.399010230475664,-2.5228913145639003,25.44886991347543,-20.890259934983643,-18.35124468651083
1776353248437,-7.563732249505818,9.44841933016479,-2.480095252149552,30.31565461222361,-23.07739920534303,-16.194491220221536
1776353248454,-7.402571673473715,9.427318674468994,-2.3175888144664465,38.230587105461105,-31.5138849436027,-10.272856374924821
1776353248470,-7.729380784606933,9.274240574866532,-2.1749840319529175,41.19131701631073,-37.433377670820974,-13.573645182850095
1776353248487,-8.320449027197062,9.044695906177163,-1.987936881122738,40.03239783869964,-38.363642605587536,-20.88077450977379
1776353248504,-8.481609018707275,8.92468713248372,-1.856705141016841,33.82806573252433,-28.96540134539296,-37.05190136039201
1776353248521,-8.308328673553467,8.787319227710366,-1.8212410289257763,26.751728497655364,-21.028391973210688,-48.223792483877155
1776353248537,-7.689277614538371,8.289923248291014,-2.0525806182079016,22.816286196015323,-14.881119267361663,-56.951814601575066
1776353248554,-7.203105039922892,7.851634706878662,-2.471116703663021,25.38443220129824,-14.569261367595344,-68.16499421859294
1776353248570,-7.041197444915771,7.7901342362552874,-2.588732590870559,31.200939336211057,-17.48588874697419,-76.52122523410496
1776353248587,-6.742820063018798,7.926154818072915,-2.6158165587596596,36.74051986632029,-21.17618189892413,-84.47263093751033
1776353248604,-6.404339803314208,8.285135429492593,-2.343176698578894,40.567099197874086,-26.68150561525117,-92.15750899912345
1776353248620,-6.19933570164144,8.47218184967041,-2.1966814844980833,40.93715201691621,-30.854898047196116,-95.10332860701493
1776353248637,-5.600785871124267,8.517821903339028,-2.1724404849499463,42.721094975285986,-38.44722363046098,-94.25563382912465
1776353248654,-5.214272525134683,8.511687930628657,-2.1181220347851513,43.86426715176561,-44.26533244473417,-92.50137487288775
1776353248670,-5.063586873626709,8.473378950500488,-2.096873641181737,44.223770743634645,-48.93736625213048,-90.38607894731314
1776353248687,-4.8014217918396,8.412626083374024,-1.9877879741713405,42.09303176034663,-52.876503686111505,-87.0856359177146
1776353248704,-4.472219648090005,8.322394608306885,-1.854610214564204,38.83442705450901,-52.12763150022755,-81.63360816748117
